ProgrNum,PacketType,AccX,AccY,AccZ,GyrX,GyrY,GyrZ,MagX,MagY,MagZ,Q0,Q1,Q2,Q3,Vbat
0,129,118,182,16452,0,0,0,0,0,0,0,0,0,0,0
1,129,170,30,16458,0,0,0,0,0,0,0,0,0,0,0
2,129,190,40,16314,0,0,0,0,0,0,0,0,0,0,0
3,129,170,100,16256,0,0,0,0,0,0,0,0,0,0,0
4,129,72,78,16458,0,0,0,0,0,0,0,0,0,0,0
5,129,128,160,16418,0,0,0,0,0,0,0,0,0,0,0
6,129,206,92,16404,0,0,0,0,0,0,0,0,0,0,0
7,129,136,130,16272,0,0,0,0,0,0,0,0,0,0,0
8,129,100,178,16302,0,0,0,0,0,0,0,0,0,0,0
9,129,174,54,16392,0,0,0,0,0,0,0,0,0,0,0
10,129,36,74,16406,0,0,0,0,0,0,0,0,0,0,0
11,129,26,126,16164,0,0,0,0,0,0,0,0,0,0,0
12,129,162,176,16304,0,0,0,0,0,0,0,0,0,0,0
13,129,192,104,16374,0,0,0,0,0,0,0,0,0,0,0
14,129,126,120,16402,0,0,0,0,0,0,0,0,0,0,0
15,129,148,140,16334,0,0,0,0,0,0,0,0,0,0,0
16,129,142,162,16368,0,0,0,0,0,0,0,0,0,0,0
17,129,178,130,16372,0,0,0,0,0,0,0,0,0,0,0
18,129,78,160,16440,0,0,0,0,0,0,0,0,0,0,0
19,129,74,164,16372,0,0,0,0,0,0,0,0,0,0,0
20,129,168,120,16292,0,0,0,0,0,0,0,0,0,0,0
21,129,188,128,16320,0,0,0,0,0,0,0,0,0,0,0
22,129,144,170,16372,0,0,0,0,0,0,0,0,0,0,0
23,129,116,180,16340,0,0,0,0,0,0,0,0,0,0,0
24,129,136,118,16338,0,0,0,0,0,0,0,0,0,0,0
25,129,196,156,16390,0,0,0,0,0,0,0,0,0,0,0
26,129,122,134,16322,0,0,0,0,0,0,0,0,0,0,0
27,129,114,38,16370,0,0,0,0,0,0,0,0,0,0,0
28,129,146,148,16368,0,0,0,0,0,0,0,0,0,0,0
29,129,136,184,16366,0,0,0,0,0,0,0,0,0,0,0
30,129,120,146,16334,0,0,0,0,0,0,0,0,0,0,0
31,129,172,130,16340,0,0,0,0,0,0,0,0,0,0,0
32,129,182,64,16380,0,0,0,0,0,0,0,0,0,0,0
33,129,154,122,16396,0,0,0,0,0,0,0,0,0,0,0
34,129,68,172,16164,0,0,0,0,0,0,0,0,0,0,0
35,129,182,130,16306,0,0,0,0,0,0,0,0,0,0,0
36,129,162,82,16394,0,0,0,0,0,0,0,0,0,0,0
37,129,216,118,16308,0,0,0,0,0,0,0,0,0,0,0
38,129,148,66,16374,0,0,0,0,0,0,0,0,0,0,0
39,129,164,210,16282,0,0,0,0,0,0,0,0,0,0,0
40,129,192,160,16370,0,0,0,0,0,0,0,0,0,0,0
41,129,150,142,16356,0,0,0,0,0,0,0,0,0,0,0
42,129,176,162,16426,0,0,0,0,0,0,0,0,0,0,0
43,129,120,106,16296,0,0,0,0,0,0,0,0,0,0,0
44,129,210,180,16326,0,0,0,0,0,0,0,0,0,0,0
45,129,192,116,16396,0,0,0,0,0,0,0,0,0,0,0
46,129,218,170,16414,0,0,0,0,0,0,0,0,0,0,0
47,129,182,152,16246,0,0,0,0,0,0,0,0,0,0,0
48,129,206,108,16428,0,0,0,0,0,0,0,0,0,0,0
49,129,180,112,16310,0,0,0,0,0,0,0,0,0,0,0
50,129,100,156,16308,0,0,0,0,0,0,0,0,0,0,0
51,129,210,154,16294,0,0,0,0,0,0,0,0,0,0,0
52,129,172,90,16218,0,0,0,0,0,0,0,0,0,0,0
53,129,114,104,16304,0,0,0,0,0,0,0,0,0,0,0
54,129,158,164,16426,0,0,0,0,0,0,0,0,0,0,0
55,129,196,162,16348,0,0,0,0,0,0,0,0,0,0,0
56,129,164,182,16440,0,0,0,0,0,0,0,0,0,0,0
57,129,218,98,16354,0,0,0,0,0,0,0,0,0,0,0
58,129,140,140,16478,0,0,0,0,0,0,0,0,0,0,0
59,129,142,124,16420,0,0,0,0,0,0,0,0,0,0,0
60,129,146,150,16340,0,0,0,0,0,0,0,0,0,0,0
61,129,208,66,16302,0,0,0,0,0,0,0,0,0,0,0
62,129,204,70,16342,0,0,0,0,0,0,0,0,0,0,0
63,129,150,136,16208,0,0,0,0,0,0,0,0,0,0,0
64,129,182,184,16366,0,0,0,0,0,0,0,0,0,0,0
65,129,184,180,16190,0,0,0,0,0,0,0,0,0,0,0
66,129,160,220,16352,0,0,0,0,0,0,0,0,0,0,0
67,129,160,120,16358,0,0,0,0,0,0,0,0,0,0,0
68,129,142,170,16382,0,0,0,0,0,0,0,0,0,0,0
69,129,206,140,16414,0,0,0,0,0,0,0,0,0,0,0
70,129,164,166,16328,0,0,0,0,0,0,0,0,0,0,0
71,129,150,210,16264,0,0,0,0,0,0,0,0,0,0,0
72,129,80,90,16234,0,0,0,0,0,0,0,0,0,0,0
73,129,188,112,16394,0,0,0,0,0,0,0,0,0,0,0
74,129,70,144,16342,0,0,0,0,0,0,0,0,0,0,0
75,129,132,92,16394,0,0,0,0,0,0,0,0,0,0,0
76,129,-3868,-70,16284,0,0,0,0,0,0,0,0,0,0,0
77,129,140,474,16532,0,0,0,0,0,0,0,0,0,0,0
78,129,-358,36,17038,0,0,0,0,0,0,0,0,0,0,0
79,129,594,8,16826,0,0,0,0,0,0,0,0,0,0,0
80,129,954,164,16222,0,0,0,0,0,0,0,0,0,0,0
81,129,1308,-1610,16246,0,0,0,0,0,0,0,0,0,0,0
82,129,-148,398,16434,0,0,0,0,0,0,0,0,0,0,0
83,129,-182,1490,16390,0,0,0,0,0,0,0,0,0,0,0
84,129,388,446,16154,0,0,0,0,0,0,0,0,0,0,0
85,129,-210,480,16324,0,0,0,0,0,0,0,0,0,0,0
86,129,-296,282,16420,0,0,0,0,0,0,0,0,0,0,0
87,129,-698,-194,16412,0,0,0,0,0,0,0,0,0,0,0
88,129,116,64,16188,0,0,0,0,0,0,0,0,0,0,0
89,129,1152,-336,16676,0,0,0,0,0,0,0,0,0,0,0
90,129,216,-154,16932,0,0,0,0,0,0,0,0,0,0,0
91,129,-18,184,15844,0,0,0,0,0,0,0,0,0,0,0
92,129,232,-26,16810,0,0,0,0,0,0,0,0,0,0,0
93,129,-452,-292,23580,0,0,0,0,0,0,0,0,0,0,0
94,129,854,-528,16324,0,0,0,0,0,0,0,0,0,0,0
95,129,-58,-1074,16420,0,0,0,0,0,0,0,0,0,0,0
96,129,-1406,-78,16652,0,0,0,0,0,0,0,0,0,0,0
97,129,310,-1420,16118,0,0,0,0,0,0,0,0,0,0,0
98,129,332,-568,16190,0,0,0,0,0,0,0,0,0,0,0
99,129,102,-276,15688,0,0,0,0,0,0,0,0,0,0,0
100,129,-96,402,16288,0,0,0,0,0,0,0,0,0,0,0
101,129,-28,-552,17112,0,0,0,0,0,0,0,0,0,0,0
102,129,-314,-744,18586,0,0,0,0,0,0,0,0,0,0,0
103,129,612,-1458,19218,0,0,0,0,0,0,0,0,0,0,0
104,129,-904,-250,20402,0,0,0,0,0,0,0,0,0,0,0
105,129,2422,-2462,19992,0,0,0,0,0,0,0,0,0,0,0
106,129,-1658,-2190,20028,0,0,0,0,0,0,0,0,0,0,0
107,129,-754,-3300,19538,0,0,0,0,0,0,0,0,0,0,0
108,129,426,-3614,17936,0,0,0,0,0,0,0,0,0,0,0
109,129,-2312,-4198,14068,0,0,0,0,0,0,0,0,0,0,0
110,129,-1540,-6018,11034,0,0,0,0,0,0,0,0,0,0,0
111,129,-2680,-9560,11324,0,0,0,0,0,0,0,0,0,0,0
112,129,-292,-11994,8264,0,0,0,0,0,0,0,0,0,0,0
113,129,1266,-11344,6510,0,0,0,0,0,0,0,0,0,0,0
114,129,950,-12014,8442,0,0,0,0,0,0,0,0,0,0,0
115,129,438,-12026,7236,0,0,0,0,0,0,0,0,0,0,0
116,129,1426,-14524,7234,0,0,0,0,0,0,0,0,0,0,0
117,129,-146,-15820,7066,0,0,0,0,0,0,0,0,0,0,0
118,129,-128,-12152,7326,0,0,0,0,0,0,0,0,0,0,0
119,129,4320,-10754,3246,0,0,0,0,0,0,0,0,0,0,0
120,129,3466,-16562,4382,0,0,0,0,0,0,0,0,0,0,0
121,129,1580,-19124,5966,0,0,0,0,0,0,0,0,0,0,0
122,129,1806,-15034,2830,0,0,0,0,0,0,0,0,0,0,0
123,129,2972,-14248,596,0,0,0,0,0,0,0,0,0,0,0
124,129,3350,-15692,436,0,0,0,0,0,0,0,0,0,0,0
125,129,5276,-17340,-1188,0,0,0,0,0,0,0,0,0,0,0
126,129,6666,-17392,-3224,0,0,0,0,0,0,0,0,0,0,0
127,129,9862,-19458,-7318,0,0,0,0,0,0,0,0,0,0,0
128,129,6496,-16882,-5138,0,0,0,0,0,0,0,0,0,0,0
129,129,3936,-11930,-6648,0,0,0,0,0,0,0,0,0,0,0
130,129,3928,-10380,-6428,0,0,0,0,0,0,0,0,0,0,0
131,129,4888,-9354,-7256,0,0,0,0,0,0,0,0,0,0,0
132,129,7194,-10980,-8198,0,0,0,0,0,0,0,0,0,0,0
133,129,8762,-12142,-9646,0,0,0,0,0,0,0,0,0,0,0
134,129,7986,-12196,-9296,0,0,0,0,0,0,0,0,0,0,0
135,129,5912,-11958,-9178,0,0,0,0,0,0,0,0,0,0,0
136,129,5062,-10990,-7776,0,0,0,0,0,0,0,0,0,0,0
137,129,5960,-10954,-9850,0,0,0,0,0,0,0,0,0,0,0
138,129,6724,-12004,-10776,0,0,0,0,0,0,0,0,0,0,0
139,129,6104,-11738,-11328,0,0,0,0,0,0,0,0,0,0,0
140,129,4648,-9364,-11348,0,0,0,0,0,0,0,0,0,0,0
141,129,5208,-7434,-12152,0,0,0,0,0,0,0,0,0,0,0
142,129,5918,-7660,-13272,0,0,0,0,0,0,0,0,0,0,0
143,129,5572,-8528,-13904,0,0,0,0,0,0,0,0,0,0,0
144,129,4654,-6972,-13760,0,0,0,0,0,0,0,0,0,0,0
145,129,4114,-5434,-13742,0,0,0,0,0,0,0,0,0,0,0
146,129,4522,-5442,-14096,0,0,0,0,0,0,0,0,0,0,0
147,129,4056,-5966,-14462,0,0,0,0,0,0,0,0,0,0,0
148,129,3410,-5046,-14464,0,0,0,0,0,0,0,0,0,0,0
149,129,3054,-4598,-14766,0,0,0,0,0,0,0,0,0,0,0
150,129,3626,-4650,-15268,0,0,0,0,0,0,0,0,0,0,0
151,129,4010,-4042,-15410,0,0,0,0,0,0,0,0,0,0,0
152,129,3876,-5398,-15848,0,0,0,0,0,0,0,0,0,0,0
153,129,4296,-4278,-14630,0,0,0,0,0,0,0,0,0,0,0
154,129,4360,-2248,-13536,0,0,0,0,0,0,0,0,0,0,0
155,129,3938,-1820,-14402,0,0,0,0,0,0,0,0,0,0,0
156,129,4356,-2132,-15516,0,0,0,0,0,0,0,0,0,0,0
157,129,4338,-2166,-15726,0,0,0,0,0,0,0,0,0,0,0
158,129,3872,-1770,-15352,0,0,0,0,0,0,0,0,0,0,0
159,129,3792,-1416,-15654,0,0,0,0,0,0,0,0,0,0,0
160,129,3738,-1550,-15704,0,0,0,0,0,0,0,0,0,0,0
161,129,3184,-2402,-14758,0,0,0,0,0,0,0,0,0,0,0
162,129,3264,-2836,-15908,0,0,0,0,0,0,0,0,0,0,0
163,129,3670,-3198,-14600,0,0,0,0,0,0,0,0,0,0,0
164,129,1236,-3982,-17170,0,0,0,0,0,0,0,0,0,0,0
165,129,1640,-3358,-14144,0,0,0,0,0,0,0,0,0,0,0
166,129,2552,-2666,-16404,0,0,0,0,0,0,0,0,0,0,0
167,129,2186,-1508,-15876,0,0,0,0,0,0,0,0,0,0,0
168,129,1868,-1782,-16308,0,0,0,0,0,0,0,0,0,0,0
169,129,1950,-890,-16272,0,0,0,0,0,0,0,0,0,0,0
170,129,956,-1584,-16326,0,0,0,0,0,0,0,0,0,0,0
171,129,402,-1240,-17882,0,0,0,0,0,0,0,0,0,0,0
172,129,-458,-1192,-16348,0,0,0,0,0,0,0,0,0,0,0
173,129,-704,-1200,-15222,0,0,0,0,0,0,0,0,0,0,0
174,129,-434,-410,-16008,0,0,0,0,0,0,0,0,0,0,0
175,129,668,-1078,-16222,0,0,0,0,0,0,0,0,0,0,0
176,129,746,-570,-15696,0,0,0,0,0,0,0,0,0,0,0
177,129,-478,4,-14738,0,0,0,0,0,0,0,0,0,0,0
178,129,586,786,-15736,0,0,0,0,0,0,0,0,0,0,0
179,129,2728,156,-17486,0,0,0,0,0,0,0,0,0,0,0
180,129,3128,664,-16852,0,0,0,0,0,0,0,0,0,0,0
181,129,2772,1602,-15366,0,0,0,0,0,0,0,0,0,0,0
182,129,1908,1130,-14042,0,0,0,0,0,0,0,0,0,0,0
183,129,622,-138,-16212,0,0,0,0,0,0,0,0,0,0,0
184,129,1432,-38,-16030,0,0,0,0,0,0,0,0,0,0,0
185,129,2326,-290,-16696,0,0,0,0,0,0,0,0,0,0,0
186,129,2520,-312,-16552,0,0,0,0,0,0,0,0,0,0,0
187,129,2150,-414,-16526,0,0,0,0,0,0,0,0,0,0,0
188,129,1304,850,-14986,0,0,0,0,0,0,0,0,0,0,0
189,129,2046,-1434,-18394,0,0,0,0,0,0,0,0,0,0,0
190,129,1360,-1118,-16808,0,0,0,0,0,0,0,0,0,0,0
191,129,1062,-418,-16434,0,0,0,0,0,0,0,0,0,0,0
192,129,1130,-488,-15266,0,0,0,0,0,0,0,0,0,0,0
193,129,1710,1048,-16230,0,0,0,0,0,0,0,0,0,0,0
194,129,2020,-2092,-17536,0,0,0,0,0,0,0,0,0,0,0
195,129,-804,-440,-16034,0,0,0,0,0,0,0,0,0,0,0
196,129,-886,602,-16462,0,0,0,0,0,0,0,0,0,0,0
197,129,-1552,712,-18518,0,0,0,0,0,0,0,0,0,0,0
198,129,-620,1548,-17382,0,0,0,0,0,0,0,0,0,0,0
199,129,204,894,-15326,0,0,0,0,0,0,0,0,0,0,0
200,129,1966,318,-16984,0,0,0,0,0,0,0,0,0,0,0
201,129,-1442,1822,-16550,0,0,0,0,0,0,0,0,0,0,0
202,129,-1412,1824,-16552,0,0,0,0,0,0,0,0,0,0,0
203,129,-1194,2174,-16288,0,0,0,0,0,0,0,0,0,0,0
204,129,26,1812,-16330,0,0,0,0,0,0,0,0,0,0,0
205,129,3008,1350,-9698,0,0,0,0,0,0,0,0,0,0,0
206,129,1072,1804,-14258,0,0,0,0,0,0,0,0,0,0,0
207,129,1070,2328,-16366,0,0,0,0,0,0,0,0,0,0,0
208,129,1060,2440,-16524,0,0,0,0,0,0,0,0,0,0,0
209,129,-192,3032,-17800,0,0,0,0,0,0,0,0,0,0,0
210,129,828,2626,-17070,0,0,0,0,0,0,0,0,0,0,0
211,129,-740,3270,-17780,0,0,0,0,0,0,0,0,0,0,0
212,129,-812,3496,-17760,0,0,0,0,0,0,0,0,0,0,0
213,129,-258,3620,-17526,0,0,0,0,0,0,0,0,0,0,0
214,129,126,2554,-19042,0,0,0,0,0,0,0,0,0,0,0
215,129,-322,1640,-21564,0,0,0,0,0,0,0,0,0,0,0
216,129,-1868,2426,-22252,0,0,0,0,0,0,0,0,0,0,0
217,129,-1664,2012,-22930,0,0,0,0,0,0,0,0,0,0,0
218,129,252,1276,-20018,0,0,0,0,0,0,0,0,0,0,0
219,129,746,612,-19670,0,0,0,0,0,0,0,0,0,0,0
220,129,324,514,-16630,0,0,0,0,0,0,0,0,0,0,0
221,129,1422,-380,-14284,0,0,0,0,0,0,0,0,0,0,0
222,129,2214,-1710,-13796,0,0,0,0,0,0,0,0,0,0,0
223,129,202,98,-14302,0,0,0,0,0,0,0,0,0,0,0
224,129,2474,-3594,-10676,0,0,0,0,0,0,0,0,0,0,0
225,129,4992,-6678,-11264,0,0,0,0,0,0,0,0,0,0,0
226,129,6772,-8862,-10974,0,0,0,0,0,0,0,0,0,0,0
227,129,7024,-10302,-12428,0,0,0,0,0,0,0,0,0,0,0
228,129,7968,-12266,-12354,0,0,0,0,0,0,0,0,0,0,0
229,129,7602,-12244,-12286,0,0,0,0,0,0,0,0,0,0,0
230,129,6648,-12016,-8126,0,0,0,0,0,0,0,0,0,0,0
231,129,6854,-13326,-3432,0,0,0,0,0,0,0,0,0,0,0
232,129,8626,-14628,-2700,0,0,0,0,0,0,0,0,0,0,0
233,129,7148,-14146,-2034,0,0,0,0,0,0,0,0,0,0,0
234,129,8894,-13576,-2384,0,0,0,0,0,0,0,0,0,0,0
235,129,7506,-12940,-610,0,0,0,0,0,0,0,0,0,0,0
236,129,6210,-11576,-1690,0,0,0,0,0,0,0,0,0,0,0
237,129,5494,-10004,7832,0,0,0,0,0,0,0,0,0,0,0
238,129,3956,-10324,13666,0,0,0,0,0,0,0,0,0,0,0
239,129,2158,-8628,10882,0,0,0,0,0,0,0,0,0,0,0
240,129,3014,-9082,10334,0,0,0,0,0,0,0,0,0,0,0
241,129,3438,-6744,11608,0,0,0,0,0,0,0,0,0,0,0
242,129,3384,-5124,14014,0,0,0,0,0,0,0,0,0,0,0
243,129,3916,-4180,12464,0,0,0,0,0,0,0,0,0,0,0
244,129,3686,-3466,14434,0,0,0,0,0,0,0,0,0,0,0
245,129,4138,-2804,14522,0,0,0,0,0,0,0,0,0,0,0
246,129,4332,-2600,14014,0,0,0,0,0,0,0,0,0,0,0
247,129,3834,12,14910,0,0,0,0,0,0,0,0,0,0,0
248,129,4412,1046,15048,0,0,0,0,0,0,0,0,0,0,0
249,129,4622,1672,15224,0,0,0,0,0,0,0,0,0,0,0
250,129,5766,2172,15854,0,0,0,0,0,0,0,0,0,0,0
251,129,6128,2606,15496,0,0,0,0,0,0,0,0,0,0,0
252,129,5360,3604,14922,0,0,0,0,0,0,0,0,0,0,0
253,129,5794,4094,15880,0,0,0,0,0,0,0,0,0,0,0
254,129,6032,4356,15232,0,0,0,0,0,0,0,0,0,0,0
255,129,6092,4472,15020,0,0,0,0,0,0,0,0,0,0,0
256,129,6136,4718,14992,0,0,0,0,0,0,0,0,0,0,0
257,129,5586,4778,14714,0,0,0,0,0,0,0,0,0,0,0
258,129,5018,5232,14446,0,0,0,0,0,0,0,0,0,0,0
259,129,5398,5040,14842,0,0,0,0,0,0,0,0,0,0,0
260,129,6020,3580,15116,0,0,0,0,0,0,0,0,0,0,0
261,129,5770,3208,15130,0,0,0,0,0,0,0,0,0,0,0
262,129,4648,3976,14678,0,0,0,0,0,0,0,0,0,0,0
263,129,4510,4290,14458,0,0,0,0,0,0,0,0,0,0,0
264,129,4484,4220,14630,0,0,0,0,0,0,0,0,0,0,0
265,129,4476,3748,14872,0,0,0,0,0,0,0,0,0,0,0
266,129,4672,3160,14778,0,0,0,0,0,0,0,0,0,0,0
267,129,4620,3092,14794,0,0,0,0,0,0,0,0,0,0,0
268,129,5152,3082,14528,0,0,0,0,0,0,0,0,0,0,0
269,129,6284,3690,14680,0,0,0,0,0,0,0,0,0,0,0
270,129,6208,3348,15192,0,0,0,0,0,0,0,0,0,0,0
271,129,6122,3126,15060,0,0,0,0,0,0,0,0,0,0,0
272,129,5852,3504,14854,0,0,0,0,0,0,0,0,0,0,0
273,129,5964,3824,14874,0,0,0,0,0,0,0,0,0,0,0
274,129,6460,3772,15128,0,0,0,0,0,0,0,0,0,0,0
275,129,6442,3770,15192,0,0,0,0,0,0,0,0,0,0,0
276,129,6372,3670,14998,0,0,0,0,0,0,0,0,0,0,0
277,129,6120,3268,14948,0,0,0,0,0,0,0,0,0,0,0
278,129,6138,3140,15032,0,0,0,0,0,0,0,0,0,0,0
279,129,5660,2980,14842,0,0,0,0,0,0,0,0,0,0,0
280,129,5778,3090,14730,0,0,0,0,0,0,0,0,0,0,0
281,129,5638,3190,14836,0,0,0,0,0,0,0,0,0,0,0
282,129,5414,2892,14776,0,0,0,0,0,0,0,0,0,0,0
283,129,5580,3026,14728,0,0,0,0,0,0,0,0,0,0,0
284,129,6036,2998,14850,0,0,0,0,0,0,0,0,0,0,0
285,129,6266,3140,14870,0,0,0,0,0,0,0,0,0,0,0
286,129,6492,3396,14840,0,0,0,0,0,0,0,0,0,0,0
287,129,6694,3446,14550,0,0,0,0,0,0,0,0,0,0,0
288,129,6280,3426,14568,0,0,0,0,0,0,0,0,0,0,0
289,129,5770,3770,14758,0,0,0,0,0,0,0,0,0,0,0
290,129,6208,3784,15030,0,0,0,0,0,0,0,0,0,0,0
291,129,6336,3684,15274,0,0,0,0,0,0,0,0,0,0,0
292,129,6984,3254,15274,0,0,0,0,0,0,0,0,0,0,0
293,129,6498,3310,15160,0,0,0,0,0,0,0,0,0,0,0
294,129,6506,3080,15310,0,0,0,0,0,0,0,0,0,0,0
295,129,5916,3266,14860,0,0,0,0,0,0,0,0,0,0,0
296,129,5586,3318,14908,0,0,0,0,0,0,0,0,0,0,0
297,129,5264,3322,14668,0,0,0,0,0,0,0,0,0,0,0
298,129,5274,3526,14598,0,0,0,0,0,0,0,0,0,0,0
299,129,5318,3612,14644,0,0,0,0,0,0,0,0,0,0,0
300,129,5390,3748,14796,0,0,0,0,0,0,0,0,0,0,0
301,129,5604,3668,14654,0,0,0,0,0,0,0,0,0,0,0
302,129,5554,3554,14854,0,0,0,0,0,0,0,0,0,0,0
303,129,5642,3364,14834,0,0,0,0,0,0,0,0,0,0,0
304,129,5742,3418,14838,0,0,0,0,0,0,0,0,0,0,0
305,129,5926,3598,14960,0,0,0,0,0,0,0,0,0,0,0
306,129,5786,3564,15146,0,0,0,0,0,0,0,0,0,0,0
307,129,6180,3406,15288,0,0,0,0,0,0,0,0,0,0,0
308,129,5898,3338,15548,0,0,0,0,0,0,0,0,0,0,0
309,129,5958,2810,15290,0,0,0,0,0,0,0,0,0,0,0
310,129,5574,2588,15308,0,0,0,0,0,0,0,0,0,0,0
311,129,5398,2584,15174,0,0,0,0,0,0,0,0,0,0,0
312,129,5302,2880,15186,0,0,0,0,0,0,0,0,0,0,0
313,129,5100,3236,15084,0,0,0,0,0,0,0,0,0,0,0
314,129,5216,3256,14802,0,0,0,0,0,0,0,0,0,0,0
315,129,5282,3254,14840,0,0,0,0,0,0,0,0,0,0,0
316,129,5364,3484,14718,0,0,0,0,0,0,0,0,0,0,0
317,129,5548,3666,14624,0,0,0,0,0,0,0,0,0,0,0
318,129,5618,3854,14824,0,0,0,0,0,0,0,0,0,0,0
319,129,5632,3618,14836,0,0,0,0,0,0,0,0,0,0,0
320,129,5514,3854,14670,0,0,0,0,0,0,0,0,0,0,0
321,129,5868,3778,14692,0,0,0,0,0,0,0,0,0,0,0
322,129,4842,3828,15386,0,0,0,0,0,0,0,0,0,0,0
323,129,5296,4102,15178,0,0,0,0,0,0,0,0,0,0,0
324,129,5710,2276,14744,0,0,0,0,0,0,0,0,0,0,0
325,129,5472,2092,15810,0,0,0,0,0,0,0,0,0,0,0
326,129,6990,-862,18168,0,0,0,0,0,0,0,0,0,0,0
327,129,5278,2556,15652,0,0,0,0,0,0,0,0,0,0,0
328,129,5614,3424,13954,0,0,0,0,0,0,0,0,0,0,0
329,129,5332,2806,15456,0,0,0,0,0,0,0,0,0,0,0
330,129,5480,3314,15942,0,0,0,0,0,0,0,0,0,0,0
331,129,4328,3112,15900,0,0,0,0,0,0,0,0,0,0,0
332,129,4788,2944,15458,0,0,0,0,0,0,0,0,0,0,0
333,129,3396,2076,17198,0,0,0,0,0,0,0,0,0,0,0
334,129,4184,844,16312,0,0,0,0,0,0,0,0,0,0,0
335,129,4280,300,17102,0,0,0,0,0,0,0,0,0,0,0
336,129,3894,234,16540,0,0,0,0,0,0,0,0,0,0,0
337,129,2626,1248,16988,0,0,0,0,0,0,0,0,0,0,0
338,129,3774,-1334,16578,0,0,0,0,0,0,0,0,0,0,0
339,129,3120,-3514,16860,0,0,0,0,0,0,0,0,0,0,0
340,129,2166,-3698,15450,0,0,0,0,0,0,0,0,0,0,0
341,129,1900,-5538,15462,0,0,0,0,0,0,0,0,0,0,0
342,129,1594,-6524,17280,0,0,0,0,0,0,0,0,0,0,0
343,129,1810,-8024,16478,0,0,0,0,0,0,0,0,0,0,0
344,129,1586,-8658,11964,0,0,0,0,0,0,0,0,0,0,0
345,129,206,-9756,9846,0,0,0,0,0,0,0,0,0,0,0
346,129,-1572,-8798,7144,0,0,0,0,0,0,0,0,0,0,0
347,129,78,-10856,7354,0,0,0,0,0,0,0,0,0,0,0
348,129,1320,-11964,3416,0,0,0,0,0,0,0,0,0,0,0
349,129,1406,-13892,-274,0,0,0,0,0,0,0,0,0,0,0
350,129,1820,-15798,-3710,0,0,0,0,0,0,0,0,0,0,0
351,129,178,-14258,-5352,0,0,0,0,0,0,0,0,0,0,0
352,129,-734,-12240,-5220,0,0,0,0,0,0,0,0,0,0,0
353,129,-2274,-10608,-5014,0,0,0,0,0,0,0,0,0,0,0
354,129,-3096,-9486,-9668,0,0,0,0,0,0,0,0,0,0,0
355,129,-3694,-9372,-11790,0,0,0,0,0,0,0,0,0,0,0
356,129,-1894,-9732,-12696,0,0,0,0,0,0,0,0,0,0,0
357,129,722,-7448,-7386,0,0,0,0,0,0,0,0,0,0,0
358,129,3074,-7826,-11850,0,0,0,0,0,0,0,0,0,0,0
359,129,-2242,-5122,-18534,0,0,0,0,0,0,0,0,0,0,0
360,129,-5140,-3430,-20438,0,0,0,0,0,0,0,0,0,0,0
361,129,-3540,-3086,-20398,0,0,0,0,0,0,0,0,0,0,0
362,129,-1330,-3372,-21634,0,0,0,0,0,0,0,0,0,0,0
363,129,-476,-3674,-19570,0,0,0,0,0,0,0,0,0,0,0
364,129,-1226,-2986,-20750,0,0,0,0,0,0,0,0,0,0,0
365,129,-2328,-1120,-19462,0,0,0,0,0,0,0,0,0,0,0
366,129,-1804,-1062,-16974,0,0,0,0,0,0,0,0,0,0,0
367,129,-1188,-1320,-15132,0,0,0,0,0,0,0,0,0,0,0
368,129,-524,-1532,-15372,0,0,0,0,0,0,0,0,0,0,0
369,129,-164,-1180,-15946,0,0,0,0,0,0,0,0,0,0,0
370,129,588,-840,-15742,0,0,0,0,0,0,0,0,0,0,0
371,129,934,-310,-16442,0,0,0,0,0,0,0,0,0,0,0
372,129,574,-14,-17056,0,0,0,0,0,0,0,0,0,0,0
373,129,-390,560,-17592,0,0,0,0,0,0,0,0,0,0,0
374,129,-700,1198,-16852,0,0,0,0,0,0,0,0,0,0,0
375,129,-684,1388,-16600,0,0,0,0,0,0,0,0,0,0,0
376,129,-320,1346,-16472,0,0,0,0,0,0,0,0,0,0,0
377,129,-418,1236,-16762,0,0,0,0,0,0,0,0,0,0,0
378,129,-496,1326,-16506,0,0,0,0,0,0,0,0,0,0,0
379,129,-538,1582,-16316,0,0,0,0,0,0,0,0,0,0,0
380,129,-236,1208,-15412,0,0,0,0,0,0,0,0,0,0,0
381,129,96,1308,-15028,0,0,0,0,0,0,0,0,0,0,0
382,129,516,1172,-16182,0,0,0,0,0,0,0,0,0,0,0
383,129,750,1082,-16520,0,0,0,0,0,0,0,0,0,0,0
384,129,1266,950,-16640,0,0,0,0,0,0,0,0,0,0,0
385,129,1238,930,-16246,0,0,0,0,0,0,0,0,0,0,0
386,129,1388,1064,-16080,0,0,0,0,0,0,0,0,0,0,0
387,129,1428,1026,-16082,0,0,0,0,0,0,0,0,0,0,0
388,129,1396,1098,-16360,0,0,0,0,0,0,0,0,0,0,0
389,129,1148,1402,-16478,0,0,0,0,0,0,0,0,0,0,0
390,129,1238,1420,-16100,0,0,0,0,0,0,0,0,0,0,0
391,129,1498,1206,-16078,0,0,0,0,0,0,0,0,0,0,0
392,129,1506,1158,-15750,0,0,0,0,0,0,0,0,0,0,0
393,129,1070,1352,-16112,0,0,0,0,0,0,0,0,0,0,0
394,129,644,1510,-16138,0,0,0,0,0,0,0,0,0,0,0
395,129,396,1476,-16302,0,0,0,0,0,0,0,0,0,0,0
396,129,520,1464,-16028,0,0,0,0,0,0,0,0,0,0,0
397,129,810,1370,-15386,0,0,0,0,0,0,0,0,0,0,0
398,129,1152,1264,-15588,0,0,0,0,0,0,0,0,0,0,0
399,129,1482,1128,-16128,0,0,0,0,0,0,0,0,0,0,0
400,129,1668,1058,-16482,0,0,0,0,0,0,0,0,0,0,0
401,129,1736,1050,-16484,0,0,0,0,0,0,0,0,0,0,0
402,129,1946,1038,-16478,0,0,0,0,0,0,0,0,0,0,0
403,129,2116,972,-16170,0,0,0,0,0,0,0,0,0,0,0
404,129,2072,982,-15974,0,0,0,0,0,0,0,0,0,0,0
405,129,2122,1006,-16108,0,0,0,0,0,0,0,0,0,0,0
406,129,1872,1116,-16450,0,0,0,0,0,0,0,0,0,0,0
407,129,1628,1294,-16274,0,0,0,0,0,0,0,0,0,0,0
408,129,1400,1396,-16034,0,0,0,0,0,0,0,0,0,0,0
409,129,1090,1340,-16298,0,0,0,0,0,0,0,0,0,0,0
410,129,912,1334,-16318,0,0,0,0,0,0,0,0,0,0,0
411,129,876,1362,-15834,0,0,0,0,0,0,0,0,0,0,0
412,129,864,1228,-15506,0,0,0,0,0,0,0,0,0,0,0
413,129,1072,1134,-15846,0,0,0,0,0,0,0,0,0,0,0
414,129,1472,924,-16088,0,0,0,0,0,0,0,0,0,0,0
415,129,1630,844,-16234,0,0,0,0,0,0,0,0,0,0,0
416,129,1932,772,-16142,0,0,0,0,0,0,0,0,0,0,0
417,129,1988,676,-15970,0,0,0,0,0,0,0,0,0,0,0
418,129,2032,688,-16028,0,0,0,0,0,0,0,0,0,0,0
419,129,2036,672,-16336,0,0,0,0,0,0,0,0,0,0,0
420,129,2096,708,-16322,0,0,0,0,0,0,0,0,0,0,0
421,129,2158,660,-16294,0,0,0,0,0,0,0,0,0,0,0
422,129,1822,1002,-16434,0,0,0,0,0,0,0,0,0,0,0
423,129,1754,988,-16384,0,0,0,0,0,0,0,0,0,0,0
424,129,1424,1188,-16144,0,0,0,0,0,0,0,0,0,0,0
425,129,1046,1340,-16352,0,0,0,0,0,0,0,0,0,0,0
426,129,592,1446,-16186,0,0,0,0,0,0,0,0,0,0,0
427,129,620,1084,-16094,0,0,0,0,0,0,0,0,0,0,0
428,129,758,1132,-15824,0,0,0,0,0,0,0,0,0,0,0
429,129,1010,920,-15704,0,0,0,0,0,0,0,0,0,0,0
430,129,1182,826,-15886,0,0,0,0,0,0,0,0,0,0,0
431,129,1222,676,-15882,0,0,0,0,0,0,0,0,0,0,0
432,129,1452,600,-16026,0,0,0,0,0,0,0,0,0,0,0
433,129,1808,582,-16288,0,0,0,0,0,0,0,0,0,0,0
434,129,1942,534,-16302,0,0,0,0,0,0,0,0,0,0,0
435,129,2030,350,-16238,0,0,0,0,0,0,0,0,0,0,0
436,129,2058,374,-16230,0,0,0,0,0,0,0,0,0,0,0
437,129,2000,346,-16332,0,0,0,0,0,0,0,0,0,0,0
438,129,1902,272,-16614,0,0,0,0,0,0,0,0,0,0,0
439,129,1470,534,-16680,0,0,0,0,0,0,0,0,0,0,0
440,129,982,598,-16298,0,0,0,0,0,0,0,0,0,0,0
441,129,672,886,-15754,0,0,0,0,0,0,0,0,0,0,0
442,129,824,534,-15690,0,0,0,0,0,0,0,0,0,0,0
443,129,392,-160,-16444,0,0,0,0,0,0,0,0,0,0,0
444,129,112,146,-15984,0,0,0,0,0,0,0,0,0,0,0
445,129,500,-280,-16136,0,0,0,0,0,0,0,0,0,0,0
446,129,470,-522,-16076,0,0,0,0,0,0,0,0,0,0,0
447,129,618,-598,-15570,0,0,0,0,0,0,0,0,0,0,0
448,129,820,-692,-15700,0,0,0,0,0,0,0,0,0,0,0
449,129,1008,-940,-15820,0,0,0,0,0,0,0,0,0,0,0
450,129,1428,-1000,-16016,0,0,0,0,0,0,0,0,0,0,0
451,129,1704,-1104,-15784,0,0,0,0,0,0,0,0,0,0,0
452,129,2034,-1226,-15928,0,0,0,0,0,0,0,0,0,0,0
453,129,2000,-1366,-16172,0,0,0,0,0,0,0,0,0,0,0
454,129,1678,-1250,-16442,0,0,0,0,0,0,0,0,0,0,0
455,129,1344,-878,-16598,0,0,0,0,0,0,0,0,0,0,0
456,129,1010,-586,-16732,0,0,0,0,0,0,0,0,0,0,0
457,129,824,-396,-16528,0,0,0,0,0,0,0,0,0,0,0
458,129,520,-248,-16474,0,0,0,0,0,0,0,0,0,0,0
459,129,310,-128,-16762,0,0,0,0,0,0,0,0,0,0,0
460,129,122,-286,-16656,0,0,0,0,0,0,0,0,0,0,0
461,129,176,-316,-16292,0,0,0,0,0,0,0,0,0,0,0
462,129,286,-432,-16028,0,0,0,0,0,0,0,0,0,0,0
463,129,382,-672,-15942,0,0,0,0,0,0,0,0,0,0,0
464,129,374,-680,-15852,0,0,0,0,0,0,0,0,0,0,0
465,129,278,-750,-15760,0,0,0,0,0,0,0,0,0,0,0
466,129,634,-972,-15674,0,0,0,0,0,0,0,0,0,0,0
467,129,922,-1110,-16128,0,0,0,0,0,0,0,0,0,0,0
468,129,1188,-1144,-15962,0,0,0,0,0,0,0,0,0,0,0
469,129,1500,-1272,-16060,0,0,0,0,0,0,0,0,0,0,0
470,129,1486,-1328,-15910,0,0,0,0,0,0,0,0,0,0,0
471,129,1400,-1140,-16180,0,0,0,0,0,0,0,0,0,0,0
472,129,1244,-842,-16406,0,0,0,0,0,0,0,0,0,0,0
473,129,940,-456,-16634,0,0,0,0,0,0,0,0,0,0,0
474,129,938,-392,-16720,0,0,0,0,0,0,0,0,0,0,0
475,129,662,-232,-16606,0,0,0,0,0,0,0,0,0,0,0
476,129,346,-8,-16554,0,0,0,0,0,0,0,0,0,0,0
477,129,276,-50,-16410,0,0,0,0,0,0,0,0,0,0,0
478,129,166,-144,-16308,0,0,0,0,0,0,0,0,0,0,0
479,129,84,-274,-16294,0,0,0,0,0,0,0,0,0,0,0
480,129,288,-254,-15854,0,0,0,0,0,0,0,0,0,0,0
481,129,664,-548,-15960,0,0,0,0,0,0,0,0,0,0,0
482,129,1030,-846,-15968,0,0,0,0,0,0,0,0,0,0,0
483,129,1182,-1024,-16506,0,0,0,0,0,0,0,0,0,0,0
484,129,1288,-1116,-16370,0,0,0,0,0,0,0,0,0,0,0
485,129,1136,-1130,-16756,0,0,0,0,0,0,0,0,0,0,0
486,129,904,-964,-16798,0,0,0,0,0,0,0,0,0,0,0
487,129,1346,-1202,-16016,0,0,0,0,0,0,0,0,0,0,0
488,129,1672,-2394,-16150,0,0,0,0,0,0,0,0,0,0,0
489,129,766,-2090,-16854,0,0,0,0,0,0,0,0,0,0,0
490,129,570,-2068,-16476,0,0,0,0,0,0,0,0,0,0,0
491,129,350,-2032,-16322,0,0,0,0,0,0,0,0,0,0,0
492,129,150,-3086,-15406,0,0,0,0,0,0,0,0,0,0,0
493,129,-920,-3130,-15532,0,0,0,0,0,0,0,0,0,0,0
494,129,-1250,-3458,-15364,0,0,0,0,0,0,0,0,0,0,0
495,129,-1322,-4082,-15108,0,0,0,0,0,0,0,0,0,0,0
496,129,-1634,-3862,-15138,0,0,0,0,0,0,0,0,0,0,0
497,129,-1618,-4102,-14620,0,0,0,0,0,0,0,0,0,0,0
498,129,-1186,-5086,-15550,0,0,0,0,0,0,0,0,0,0,0
499,129,-1462,-4942,-15450,0,0,0,0,0,0,0,0,0,0,0
500,129,-934,-5690,-15940,0,0,0,0,0,0,0,0,0,0,0
501,129,-1236,-5728,-16884,0,0,0,0,0,0,0,0,0,0,0
502,129,-1908,-5982,-15868,0,0,0,0,0,0,0,0,0,0,0
503,129,-2266,-6380,-14788,0,0,0,0,0,0,0,0,0,0,0
504,129,-2150,-7362,-14796,0,0,0,0,0,0,0,0,0,0,0
505,129,-2400,-8228,-13508,0,0,0,0,0,0,0,0,0,0,0
506,129,-2974,-9272,-13358,0,0,0,0,0,0,0,0,0,0,0
507,129,-3178,-9734,-12886,0,0,0,0,0,0,0,0,0,0,0
508,129,-4628,-8946,-13748,0,0,0,0,0,0,0,0,0,0,0
509,129,-4340,-11140,-13474,0,0,0,0,0,0,0,0,0,0,0
510,129,-4198,-11520,-12748,0,0,0,0,0,0,0,0,0,0,0
511,129,-3260,-12632,-10564,0,0,0,0,0,0,0,0,0,0,0
512,129,-2006,-12002,-11216,0,0,0,0,0,0,0,0,0,0,0
513,129,-1408,-15088,-6834,0,0,0,0,0,0,0,0,0,0,0
514,129,520,-15786,-4930,0,0,0,0,0,0,0,0,0,0,0
515,129,92,-15692,-4600,0,0,0,0,0,0,0,0,0,0,0
516,129,-108,-16750,1362,0,0,0,0,0,0,0,0,0,0,0
517,129,-344,-15152,-1256,0,0,0,0,0,0,0,0,0,0,0
518,129,-1032,-16872,4010,0,0,0,0,0,0,0,0,0,0,0
519,129,-540,-16256,3744,0,0,0,0,0,0,0,0,0,0,0
520,129,72,-16170,6004,0,0,0,0,0,0,0,0,0,0,0
521,129,852,-15932,5816,0,0,0,0,0,0,0,0,0,0,0
522,129,686,-16428,7154,0,0,0,0,0,0,0,0,0,0,0
523,129,-10,-15512,8184,0,0,0,0,0,0,0,0,0,0,0
524,129,-398,-14642,8126,0,0,0,0,0,0,0,0,0,0,0
525,129,-306,-13124,10874,0,0,0,0,0,0,0,0,0,0,0
526,129,856,-10262,9370,0,0,0,0,0,0,0,0,0,0,0
527,129,1584,-8934,12208,0,0,0,0,0,0,0,0,0,0,0
528,129,2286,-8644,12692,0,0,0,0,0,0,0,0,0,0,0
529,129,808,-6736,12934,0,0,0,0,0,0,0,0,0,0,0
530,129,304,-6136,13926,0,0,0,0,0,0,0,0,0,0,0
531,129,666,-4990,14030,0,0,0,0,0,0,0,0,0,0,0
532,129,1216,-3036,13644,0,0,0,0,0,0,0,0,0,0,0
533,129,2472,-2248,16782,0,0,0,0,0,0,0,0,0,0,0
534,129,2598,-1964,16126,0,0,0,0,0,0,0,0,0,0,0
535,129,2386,-1220,15982,0,0,0,0,0,0,0,0,0,0,0
536,129,3028,-1112,16014,0,0,0,0,0,0,0,0,0,0,0
537,129,2664,-428,16126,0,0,0,0,0,0,0,0,0,0,0
538,129,2976,-522,16474,0,0,0,0,0,0,0,0,0,0,0
539,129,3362,-648,15866,0,0,0,0,0,0,0,0,0,0,0
540,129,2878,270,16294,0,0,0,0,0,0,0,0,0,0,0
541,129,2478,496,15594,0,0,0,0,0,0,0,0,0,0,0
542,129,3018,868,15996,0,0,0,0,0,0,0,0,0,0,0
543,129,3174,1274,16962,0,0,0,0,0,0,0,0,0,0,0
544,129,3278,982,16400,0,0,0,0,0,0,0,0,0,0,0
545,129,2528,1998,15842,0,0,0,0,0,0,0,0,0,0,0
546,129,2670,1492,15552,0,0,0,0,0,0,0,0,0,0,0
547,129,1734,2034,15288,0,0,0,0,0,0,0,0,0,0,0
548,129,1840,2668,14106,0,0,0,0,0,0,0,0,0,0,0
549,129,2466,2530,15760,0,0,0,0,0,0,0,0,0,0,0
550,129,2588,2842,15774,0,0,0,0,0,0,0,0,0,0,0
551,129,2950,3492,15540,0,0,0,0,0,0,0,0,0,0,0
552,129,2930,3464,15638,0,0,0,0,0,0,0,0,0,0,0
553,129,2300,3612,15028,0,0,0,0,0,0,0,0,0,0,0
554,129,2396,3754,15024,0,0,0,0,0,0,0,0,0,0,0
555,129,3066,3498,15632,0,0,0,0,0,0,0,0,0,0,0
556,129,2750,3366,15984,0,0,0,0,0,0,0,0,0,0,0
557,129,2882,2994,16102,0,0,0,0,0,0,0,0,0,0,0
558,129,2772,3046,16098,0,0,0,0,0,0,0,0,0,0,0
559,129,2452,2820,15920,0,0,0,0,0,0,0,0,0,0,0
560,129,2426,2262,16078,0,0,0,0,0,0,0,0,0,0,0
561,129,2104,2610,15938,0,0,0,0,0,0,0,0,0,0,0
562,129,2120,2740,16022,0,0,0,0,0,0,0,0,0,0,0
563,129,1992,2738,15828,0,0,0,0,0,0,0,0,0,0,0
564,129,1684,2556,15588,0,0,0,0,0,0,0,0,0,0,0
565,129,1656,2574,15636,0,0,0,0,0,0,0,0,0,0,0
566,129,1954,2866,15552,0,0,0,0,0,0,0,0,0,0,0
567,129,2486,2812,16024,0,0,0,0,0,0,0,0,0,0,0
568,129,2720,2988,15794,0,0,0,0,0,0,0,0,0,0,0
569,129,2294,3148,15314,0,0,0,0,0,0,0,0,0,0,0
570,129,2330,3218,15380,0,0,0,0,0,0,0,0,0,0,0
571,129,2538,2930,15572,0,0,0,0,0,0,0,0,0,0,0
572,129,2800,2918,16096,0,0,0,0,0,0,0,0,0,0,0
573,129,3068,3214,16034,0,0,0,0,0,0,0,0,0,0,0
574,129,3260,3176,16168,0,0,0,0,0,0,0,0,0,0,0
575,129,3052,3134,16100,0,0,0,0,0,0,0,0,0,0,0
576,129,2756,2690,16126,0,0,0,0,0,0,0,0,0,0,0
577,129,2730,1816,16396,0,0,0,0,0,0,0,0,0,0,0
578,129,2286,2060,16274,0,0,0,0,0,0,0,0,0,0,0
579,129,2188,2466,15900,0,0,0,0,0,0,0,0,0,0,0
580,129,2198,2840,15672,0,0,0,0,0,0,0,0,0,0,0
581,129,2350,2702,15650,0,0,0,0,0,0,0,0,0,0,0
582,129,2388,2460,15674,0,0,0,0,0,0,0,0,0,0,0
583,129,2166,2484,15708,0,0,0,0,0,0,0,0,0,0,0
584,129,2466,2688,15692,0,0,0,0,0,0,0,0,0,0,0
585,129,2774,3022,15776,0,0,0,0,0,0,0,0,0,0,0
586,129,3096,3256,15760,0,0,0,0,0,0,0,0,0,0,0
587,129,3260,3318,15724,0,0,0,0,0,0,0,0,0,0,0
588,129,3202,3396,15866,0,0,0,0,0,0,0,0,0,0,0
589,129,3192,3358,15900,0,0,0,0,0,0,0,0,0,0,0
590,129,3322,3010,15926,0,0,0,0,0,0,0,0,0,0,0
591,129,3464,2664,16256,0,0,0,0,0,0,0,0,0,0,0
592,129,3268,2512,15976,0,0,0,0,0,0,0,0,0,0,0
593,129,2660,2368,16144,0,0,0,0,0,0,0,0,0,0,0
594,129,2574,2094,16246,0,0,0,0,0,0,0,0,0,0,0
595,129,2496,2006,16902,0,0,0,0,0,0,0,0,0,0,0
596,129,2184,2048,16982,0,0,0,0,0,0,0,0,0,0,0
597,129,1528,2454,15510,0,0,0,0,0,0,0,0,0,0,0
598,129,2368,1888,15638,0,0,0,0,0,0,0,0,0,0,0
599,129,2512,-200,16216,0,0,0,0,0,0,0,0,0,0,0
600,129,1680,2230,15342,0,0,0,0,0,0,0,0,0,0,0
601,129,2074,1188,15812,0,0,0,0,0,0,0,0,0,0,0
602,129,2010,1124,15894,0,0,0,0,0,0,0,0,0,0,0
603,129,1304,364,16386,0,0,0,0,0,0,0,0,0,0,0
604,129,2636,632,15080,0,0,0,0,0,0,0,0,0,0,0
605,129,2292,200,15822,0,0,0,0,0,0,0,0,0,0,0
606,129,2378,100,16432,0,0,0,0,0,0,0,0,0,0,0
607,129,2646,192,16682,0,0,0,0,0,0,0,0,0,0,0
608,129,2206,-368,16596,0,0,0,0,0,0,0,0,0,0,0
609,129,2084,-1548,16400,0,0,0,0,0,0,0,0,0,0,0
610,129,1894,154,14258,0,0,0,0,0,0,0,0,0,0,0
611,129,3242,-2702,17394,0,0,0,0,0,0,0,0,0,0,0
612,129,2788,-3298,16668,0,0,0,0,0,0,0,0,0,0,0
613,129,3126,-3370,16068,0,0,0,0,0,0,0,0,0,0,0
614,129,2656,-3936,16062,0,0,0,0,0,0,0,0,0,0,0
615,129,2994,-4610,15580,0,0,0,0,0,0,0,0,0,0,0
616,129,2998,-5534,15128,0,0,0,0,0,0,0,0,0,0,0
617,129,2822,-7296,14530,0,0,0,0,0,0,0,0,0,0,0
618,129,2228,-8594,13878,0,0,0,0,0,0,0,0,0,0,0
619,129,2618,-9760,13342,0,0,0,0,0,0,0,0,0,0,0
620,129,3102,-9876,12544,0,0,0,0,0,0,0,0,0,0,0
621,129,2876,-11132,11444,0,0,0,0,0,0,0,0,0,0,0
622,129,1566,-12226,10066,0,0,0,0,0,0,0,0,0,0,0
623,129,1214,-13582,5300,0,0,0,0,0,0,0,0,0,0,0
624,129,190,-13572,2718,0,0,0,0,0,0,0,0,0,0,0
625,129,1342,-15096,2086,0,0,0,0,0,0,0,0,0,0,0
626,129,1496,-14404,586,0,0,0,0,0,0,0,0,0,0,0
627,129,2876,-16140,-1714,0,0,0,0,0,0,0,0,0,0,0
628,129,1204,-15044,-3036,0,0,0,0,0,0,0,0,0,0,0
629,129,750,-13788,-4490,0,0,0,0,0,0,0,0,0,0,0
630,129,820,-12926,-5076,0,0,0,0,0,0,0,0,0,0,0
631,129,730,-12332,-7414,0,0,0,0,0,0,0,0,0,0,0
632,129,1650,-11570,-8348,0,0,0,0,0,0,0,0,0,0,0
633,129,1452,-11534,-11448,0,0,0,0,0,0,0,0,0,0,0
634,129,1578,-10482,-13226,0,0,0,0,0,0,0,0,0,0,0
635,129,1140,-9552,-12172,0,0,0,0,0,0,0,0,0,0,0
636,129,752,-8478,-14102,0,0,0,0,0,0,0,0,0,0,0
637,129,638,-8084,-15740,0,0,0,0,0,0,0,0,0,0,0
638,129,996,-7836,-16026,0,0,0,0,0,0,0,0,0,0,0
639,129,802,-6942,-16472,0,0,0,0,0,0,0,0,0,0,0
640,129,844,-6226,-16782,0,0,0,0,0,0,0,0,0,0,0
641,129,644,-5368,-16722,0,0,0,0,0,0,0,0,0,0,0
642,129,460,-4776,-15636,0,0,0,0,0,0,0,0,0,0,0
643,129,808,-4138,-15952,0,0,0,0,0,0,0,0,0,0,0
644,129,776,-3410,-16914,0,0,0,0,0,0,0,0,0,0,0
645,129,858,-2740,-16424,0,0,0,0,0,0,0,0,0,0,0
646,129,908,-2736,-17274,0,0,0,0,0,0,0,0,0,0,0
647,129,438,-2280,-16976,0,0,0,0,0,0,0,0,0,0,0
648,129,234,-1936,-16410,0,0,0,0,0,0,0,0,0,0,0
649,129,64,-1248,-16324,0,0,0,0,0,0,0,0,0,0,0
650,129,334,-1360,-16224,0,0,0,0,0,0,0,0,0,0,0
651,129,572,-1214,-16598,0,0,0,0,0,0,0,0,0,0,0
652,129,746,-1122,-16688,0,0,0,0,0,0,0,0,0,0,0
653,129,730,-696,-16646,0,0,0,0,0,0,0,0,0,0,0
654,129,742,-732,-16648,0,0,0,0,0,0,0,0,0,0,0
655,129,982,-810,-16600,0,0,0,0,0,0,0,0,0,0,0
656,129,1270,-824,-16194,0,0,0,0,0,0,0,0,0,0,0
657,129,1354,-704,-16206,0,0,0,0,0,0,0,0,0,0,0
658,129,1494,-616,-16262,0,0,0,0,0,0,0,0,0,0,0
659,129,1400,-332,-16116,0,0,0,0,0,0,0,0,0,0,0
660,129,1228,-372,-16280,0,0,0,0,0,0,0,0,0,0,0
661,129,1136,-392,-16174,0,0,0,0,0,0,0,0,0,0,0
662,129,968,-318,-16268,0,0,0,0,0,0,0,0,0,0,0
663,129,598,-206,-16588,0,0,0,0,0,0,0,0,0,0,0
664,129,362,-180,-16040,0,0,0,0,0,0,0,0,0,0,0
665,129,304,-140,-16158,0,0,0,0,0,0,0,0,0,0,0
666,129,522,-138,-15888,0,0,0,0,0,0,0,0,0,0,0
667,129,608,-260,-15654,0,0,0,0,0,0,0,0,0,0,0
668,129,890,-184,-15970,0,0,0,0,0,0,0,0,0,0,0
669,129,1126,-128,-16416,0,0,0,0,0,0,0,0,0,0,0
670,129,1322,-110,-16646,0,0,0,0,0,0,0,0,0,0,0
671,129,1598,-160,-16620,0,0,0,0,0,0,0,0,0,0,0
672,129,1694,-116,-16514,0,0,0,0,0,0,0,0,0,0,0
673,129,1632,24,-16288,0,0,0,0,0,0,0,0,0,0,0
674,129,1468,108,-16526,0,0,0,0,0,0,0,0,0,0,0
675,129,1310,194,-16380,0,0,0,0,0,0,0,0,0,0,0
676,129,1110,372,-16274,0,0,0,0,0,0,0,0,0,0,0
677,129,890,542,-16252,0,0,0,0,0,0,0,0,0,0,0
678,129,756,654,-16406,0,0,0,0,0,0,0,0,0,0,0
679,129,296,936,-16620,0,0,0,0,0,0,0,0,0,0,0
680,129,100,1060,-16536,0,0,0,0,0,0,0,0,0,0,0
681,129,-168,896,-15956,0,0,0,0,0,0,0,0,0,0,0
682,129,-30,488,-15864,0,0,0,0,0,0,0,0,0,0,0
683,129,58,318,-15828,0,0,0,0,0,0,0,0,0,0,0
684,129,-64,356,-15894,0,0,0,0,0,0,0,0,0,0,0
685,129,0,262,-16196,0,0,0,0,0,0,0,0,0,0,0
686,129,2,416,-16070,0,0,0,0,0,0,0,0,0,0,0
687,129,-88,456,-15988,0,0,0,0,0,0,0,0,0,0,0
688,129,-142,542,-16214,0,0,0,0,0,0,0,0,0,0,0
689,129,-236,558,-16132,0,0,0,0,0,0,0,0,0,0,0
690,129,-162,528,-16062,0,0,0,0,0,0,0,0,0,0,0
691,129,-282,724,-16156,0,0,0,0,0,0,0,0,0,0,0
692,129,-444,794,-15678,0,0,0,0,0,0,0,0,0,0,0
693,129,-788,942,-15868,0,0,0,0,0,0,0,0,0,0,0
694,129,-960,1086,-16234,0,0,0,0,0,0,0,0,0,0,0
695,129,-830,1200,-16380,0,0,0,0,0,0,0,0,0,0,0
696,129,-720,1112,-16982,0,0,0,0,0,0,0,0,0,0,0
697,129,-426,1052,-16738,0,0,0,0,0,0,0,0,0,0,0
698,129,-136,692,-16784,0,0,0,0,0,0,0,0,0,0,0
699,129,-48,420,-16840,0,0,0,0,0,0,0,0,0,0,0
700,129,-522,486,-16588,0,0,0,0,0,0,0,0,0,0,0
701,129,-844,568,-16322,0,0,0,0,0,0,0,0,0,0,0
702,129,-1002,430,-16380,0,0,0,0,0,0,0,0,0,0,0
703,129,-898,414,-16352,0,0,0,0,0,0,0,0,0,0,0
704,129,-898,282,-16204,0,0,0,0,0,0,0,0,0,0,0
705,129,-1166,112,-16032,0,0,0,0,0,0,0,0,0,0,0
706,129,-1664,144,-15888,0,0,0,0,0,0,0,0,0,0,0
707,129,-1962,202,-15596,0,0,0,0,0,0,0,0,0,0,0
708,129,-1998,130,-15668,0,0,0,0,0,0,0,0,0,0,0
709,129,-2206,220,-15748,0,0,0,0,0,0,0,0,0,0,0
710,129,-1678,-18,-15786,0,0,0,0,0,0,0,0,0,0,0
711,129,-1708,10,-16350,0,0,0,0,0,0,0,0,0,0,0
712,129,-1928,-70,-16488,0,0,0,0,0,0,0,0,0,0,0
713,129,-2308,-86,-16530,0,0,0,0,0,0,0,0,0,0,0
714,129,-2662,10,-16430,0,0,0,0,0,0,0,0,0,0,0
715,129,-2844,1888,-14778,0,0,0,0,0,0,0,0,0,0,0
716,129,-2286,-1540,-17270,0,0,0,0,0,0,0,0,0,0,0
717,129,-2210,-1180,-16326,0,0,0,0,0,0,0,0,0,0,0
718,129,-2734,-1418,-16284,0,0,0,0,0,0,0,0,0,0,0
719,129,-2214,-2534,-15400,0,0,0,0,0,0,0,0,0,0,0
720,129,-2490,-2938,-15804,0,0,0,0,0,0,0,0,0,0,0
721,129,-2230,-4980,-16810,0,0,0,0,0,0,0,0,0,0,0
722,129,-2026,-4778,-16782,0,0,0,0,0,0,0,0,0,0,0
723,129,-2266,-3532,-17222,0,0,0,0,0,0,0,0,0,0,0
724,129,584,-8990,-15046,0,0,0,0,0,0,0,0,0,0,0
725,129,-696,-6094,-16000,0,0,0,0,0,0,0,0,0,0,0
726,129,3060,-12026,-14046,0,0,0,0,0,0,0,0,0,0,0
727,129,338,-8102,-15944,0,0,0,0,0,0,0,0,0,0,0
728,129,1542,-11434,-13344,0,0,0,0,0,0,0,0,0,0,0
729,129,762,-10450,-11576,0,0,0,0,0,0,0,0,0,0,0
730,129,572,-10028,-11382,0,0,0,0,0,0,0,0,0,0,0
731,129,108,-12580,-9898,0,0,0,0,0,0,0,0,0,0,0
732,129,1772,-13972,-9680,0,0,0,0,0,0,0,0,0,0,0
733,129,2932,-14450,-8766,0,0,0,0,0,0,0,0,0,0,0
734,129,620,-15272,-4606,0,0,0,0,0,0,0,0,0,0,0
735,129,600,-14398,-4304,0,0,0,0,0,0,0,0,0,0,0
736,129,668,-15474,-3382,0,0,0,0,0,0,0,0,0,0,0
737,129,1318,-16270,-3566,0,0,0,0,0,0,0,0,0,0,0
738,129,1174,-15940,-1252,0,0,0,0,0,0,0,0,0,0,0
739,129,1324,-15972,14,0,0,0,0,0,0,0,0,0,0,0
740,129,1106,-15560,1620,0,0,0,0,0,0,0,0,0,0,0
741,129,1386,-15790,2494,0,0,0,0,0,0,0,0,0,0,0
742,129,1644,-15968,3412,0,0,0,0,0,0,0,0,0,0,0
743,129,1402,-15878,2912,0,0,0,0,0,0,0,0,0,0,0
744,129,1472,-15764,2702,0,0,0,0,0,0,0,0,0,0,0
745,129,1652,-15922,3056,0,0,0,0,0,0,0,0,0,0,0
746,129,1428,-15980,2882,0,0,0,0,0,0,0,0,0,0,0
747,129,1600,-15916,2858,0,0,0,0,0,0,0,0,0,0,0
748,129,1486,-16188,2724,0,0,0,0,0,0,0,0,0,0,0
749,129,1228,-16014,2276,0,0,0,0,0,0,0,0,0,0,0
750,129,1056,-16250,2330,0,0,0,0,0,0,0,0,0,0,0
751,129,634,-16102,1546,0,0,0,0,0,0,0,0,0,0,0
752,129,746,-16022,1798,0,0,0,0,0,0,0,0,0,0,0
753,129,730,-15784,1776,0,0,0,0,0,0,0,0,0,0,0
754,129,734,-16392,1966,0,0,0,0,0,0,0,0,0,0,0
755,129,374,-16340,1788,0,0,0,0,0,0,0,0,0,0,0
756,129,622,-16152,2012,0,0,0,0,0,0,0,0,0,0,0
757,129,548,-15984,2288,0,0,0,0,0,0,0,0,0,0,0
758,129,740,-16016,2410,0,0,0,0,0,0,0,0,0,0,0
759,129,520,-16268,2310,0,0,0,0,0,0,0,0,0,0,0
760,129,668,-16026,2598,0,0,0,0,0,0,0,0,0,0,0
761,129,756,-16050,2574,0,0,0,0,0,0,0,0,0,0,0
762,129,554,-16064,2412,0,0,0,0,0,0,0,0,0,0,0
763,129,408,-16188,2366,0,0,0,0,0,0,0,0,0,0,0
764,129,352,-16208,2506,0,0,0,0,0,0,0,0,0,0,0
765,129,382,-16040,2602,0,0,0,0,0,0,0,0,0,0,0
766,129,230,-16084,2512,0,0,0,0,0,0,0,0,0,0,0
767,129,196,-16064,2650,0,0,0,0,0,0,0,0,0,0,0
768,129,400,-15844,2912,0,0,0,0,0,0,0,0,0,0,0
769,129,458,-15708,2942,0,0,0,0,0,0,0,0,0,0,0
770,129,502,-15678,2964,0,0,0,0,0,0,0,0,0,0,0
771,129,554,-15962,2802,0,0,0,0,0,0,0,0,0,0,0
772,129,286,-16052,2564,0,0,0,0,0,0,0,0,0,0,0
773,129,496,-15872,2614,0,0,0,0,0,0,0,0,0,0,0
774,129,690,-16116,2474,0,0,0,0,0,0,0,0,0,0,0
775,129,600,-16448,2384,0,0,0,0,0,0,0,0,0,0,0
776,129,550,-16370,2264,0,0,0,0,0,0,0,0,0,0,0
777,129,490,-16310,2348,0,0,0,0,0,0,0,0,0,0,0
778,129,174,-16616,2118,0,0,0,0,0,0,0,0,0,0,0
779,129,142,-16410,2308,0,0,0,0,0,0,0,0,0,0,0
780,129,200,-16148,2476,0,0,0,0,0,0,0,0,0,0,0
781,129,272,-15884,2474,0,0,0,0,0,0,0,0,0,0,0
782,129,404,-15632,2700,0,0,0,0,0,0,0,0,0,0,0
783,129,556,-15460,2878,0,0,0,0,0,0,0,0,0,0,0
784,129,608,-15602,2872,0,0,0,0,0,0,0,0,0,0,0
785,129,854,-15670,2838,0,0,0,0,0,0,0,0,0,0,0
786,129,880,-16022,2718,0,0,0,0,0,0,0,0,0,0,0
787,129,976,-15902,2736,0,0,0,0,0,0,0,0,0,0,0
788,129,900,-16248,2370,0,0,0,0,0,0,0,0,0,0,0
789,129,678,-16674,2140,0,0,0,0,0,0,0,0,0,0,0
790,129,542,-16488,2018,0,0,0,0,0,0,0,0,0,0,0
791,129,288,-16616,1816,0,0,0,0,0,0,0,0,0,0,0
792,129,50,-16564,1890,0,0,0,0,0,0,0,0,0,0,0
793,129,282,-16188,2072,0,0,0,0,0,0,0,0,0,0,0
794,129,160,-15778,2332,0,0,0,0,0,0,0,0,0,0,0
795,129,386,-15874,2508,0,0,0,0,0,0,0,0,0,0,0
796,129,578,-15982,2658,0,0,0,0,0,0,0,0,0,0,0
797,129,698,-15656,2852,0,0,0,0,0,0,0,0,0,0,0
798,129,852,-15518,2906,0,0,0,0,0,0,0,0,0,0,0
799,129,1014,-15748,2860,0,0,0,0,0,0,0,0,0,0,0
800,129,1112,-15750,2784,0,0,0,0,0,0,0,0,0,0,0
801,129,1092,-16200,2576,0,0,0,0,0,0,0,0,0,0,0
802,129,824,-16260,2190,0,0,0,0,0,0,0,0,0,0,0
803,129,538,-16396,1942,0,0,0,0,0,0,0,0,0,0,0
804,129,198,-16476,1794,0,0,0,0,0,0,0,0,0,0,0
805,129,226,-16462,1876,0,0,0,0,0,0,0,0,0,0,0
806,129,146,-16570,1756,0,0,0,0,0,0,0,0,0,0,0
807,129,204,-16016,1986,0,0,0,0,0,0,0,0,0,0,0
808,129,386,-16002,2232,0,0,0,0,0,0,0,0,0,0,0
809,129,566,-15898,2322,0,0,0,0,0,0,0,0,0,0,0
810,129,814,-15876,2598,0,0,0,0,0,0,0,0,0,0,0
811,129,874,-15660,2646,0,0,0,0,0,0,0,0,0,0,0
812,129,1020,-15772,2734,0,0,0,0,0,0,0,0,0,0,0
813,129,1312,-15844,2676,0,0,0,0,0,0,0,0,0,0,0
814,129,1346,-16118,2514,0,0,0,0,0,0,0,0,0,0,0
815,129,1216,-16108,2494,0,0,0,0,0,0,0,0,0,0,0
816,129,1020,-16590,2086,0,0,0,0,0,0,0,0,0,0,0
817,129,800,-16494,1982,0,0,0,0,0,0,0,0,0,0,0
818,129,580,-16498,1770,0,0,0,0,0,0,0,0,0,0,0
819,129,346,-16526,1782,0,0,0,0,0,0,0,0,0,0,0
820,129,402,-16098,2088,0,0,0,0,0,0,0,0,0,0,0
821,129,460,-15828,2324,0,0,0,0,0,0,0,0,0,0,0
822,129,608,-15732,2472,0,0,0,0,0,0,0,0,0,0,0
823,129,728,-15720,2336,0,0,0,0,0,0,0,0,0,0,0
824,129,902,-15534,2542,0,0,0,0,0,0,0,0,0,0,0
825,129,1090,-15698,2496,0,0,0,0,0,0,0,0,0,0,0
826,129,1302,-15932,2454,0,0,0,0,0,0,0,0,0,0,0
827,129,1422,-16318,2406,0,0,0,0,0,0,0,0,0,0,0
828,129,1326,-16436,2274,0,0,0,0,0,0,0,0,0,0,0
829,129,1188,-16560,1932,0,0,0,0,0,0,0,0,0,0,0
830,129,1018,-16710,1796,0,0,0,0,0,0,0,0,0,0,0
831,129,636,-16592,1788,0,0,0,0,0,0,0,0,0,0,0
832,129,502,-16604,1632,0,0,0,0,0,0,0,0,0,0,0
833,129,488,-16218,1824,0,0,0,0,0,0,0,0,0,0,0
834,129,552,-15876,2194,0,0,0,0,0,0,0,0,0,0,0
835,129,862,-15628,2562,0,0,0,0,0,0,0,0,0,0,0
836,129,1010,-15598,2624,0,0,0,0,0,0,0,0,0,0,0
837,129,1034,-15400,2846,0,0,0,0,0,0,0,0,0,0,0
838,129,1286,-15560,2856,0,0,0,0,0,0,0,0,0,0,0
839,129,1278,-15778,2670,0,0,0,0,0,0,0,0,0,0,0
840,129,2030,-16028,2684,0,0,0,0,0,0,0,0,0,0,0
841,129,1452,-16196,2388,0,0,0,0,0,0,0,0,0,0,0
842,129,1318,-16190,2254,0,0,0,0,0,0,0,0,0,0,0
843,129,1080,-16438,1884,0,0,0,0,0,0,0,0,0,0,0
844,129,924,-16534,1784,0,0,0,0,0,0,0,0,0,0,0
845,129,598,-16506,1720,0,0,0,0,0,0,0,0,0,0,0
846,129,546,-16354,1940,0,0,0,0,0,0,0,0,0,0,0
847,129,598,-16018,1934,0,0,0,0,0,0,0,0,0,0,0
848,129,904,-15662,2372,0,0,0,0,0,0,0,0,0,0,0
849,129,1164,-15646,2498,0,0,0,0,0,0,0,0,0,0,0
850,129,1342,-15690,2618,0,0,0,0,0,0,0,0,0,0,0
851,129,1454,-15916,2452,0,0,0,0,0,0,0,0,0,0,0
852,129,1496,-16064,2482,0,0,0,0,0,0,0,0,0,0,0
853,129,1538,-16292,2104,0,0,0,0,0,0,0,0,0,0,0
854,129,1332,-16492,1990,0,0,0,0,0,0,0,0,0,0,0
855,129,1068,-16514,1950,0,0,0,0,0,0,0,0,0,0,0
856,129,934,-16498,1808,0,0,0,0,0,0,0,0,0,0,0
857,129,756,-16414,1612,0,0,0,0,0,0,0,0,0,0,0
858,129,802,-16290,1918,0,0,0,0,0,0,0,0,0,0,0
859,129,588,-16088,1986,0,0,0,0,0,0,0,0,0,0,0
860,129,806,-15806,2332,0,0,0,0,0,0,0,0,0,0,0
861,129,840,-15694,2604,0,0,0,0,0,0,0,0,0,0,0
862,129,1008,-15560,2670,0,0,0,0,0,0,0,0,0,0,0
863,129,1334,-15544,2802,0,0,0,0,0,0,0,0,0,0,0
864,129,1464,-15626,2926,0,0,0,0,0,0,0,0,0,0,0
865,129,1612,-15772,2628,0,0,0,0,0,0,0,0,0,0,0
866,129,1764,-16100,2612,0,0,0,0,0,0,0,0,0,0,0
867,129,1500,-16570,2244,0,0,0,0,0,0,0,0,0,0,0
868,129,1330,-16514,2064,0,0,0,0,0,0,0,0,0,0,0
869,129,1058,-16600,1892,0,0,0,0,0,0,0,0,0,0,0
870,129,792,-16416,1968,0,0,0,0,0,0,0,0,0,0,0
871,129,738,-16402,1854,0,0,0,0,0,0,0,0,0,0,0
872,129,648,-16256,1892,0,0,0,0,0,0,0,0,0,0,0
873,129,784,-16122,2110,0,0,0,0,0,0,0,0,0,0,0
874,129,880,-15688,2454,0,0,0,0,0,0,0,0,0,0,0
875,129,1108,-15612,2762,0,0,0,0,0,0,0,0,0,0,0
876,129,1480,-15624,2746,0,0,0,0,0,0,0,0,0,0,0
877,129,1578,-15644,2984,0,0,0,0,0,0,0,0,0,0,0
878,129,1794,-15660,2938,0,0,0,0,0,0,0,0,0,0,0
879,129,1714,-16222,2798,0,0,0,0,0,0,0,0,0,0,0
880,129,1616,-16458,2504,0,0,0,0,0,0,0,0,0,0,0
881,129,1414,-16388,2326,0,0,0,0,0,0,0,0,0,0,0
882,129,1110,-16420,2172,0,0,0,0,0,0,0,0,0,0,0
883,129,850,-16418,1944,0,0,0,0,0,0,0,0,0,0,0
884,129,830,-16226,1992,0,0,0,0,0,0,0,0,0,0,0
885,129,618,-16118,1916,0,0,0,0,0,0,0,0,0,0,0
886,129,560,-16132,2258,0,0,0,0,0,0,0,0,0,0,0
887,129,962,-15720,2450,0,0,0,0,0,0,0,0,0,0,0
888,129,1212,-15550,2844,0,0,0,0,0,0,0,0,0,0,0
889,129,1596,-15540,2946,0,0,0,0,0,0,0,0,0,0,0
890,129,1618,-15602,3074,0,0,0,0,0,0,0,0,0,0,0
891,129,1792,-15798,2930,0,0,0,0,0,0,0,0,0,0,0
892,129,1748,-16148,2860,0,0,0,0,0,0,0,0,0,0,0
893,129,1716,-16258,2568,0,0,0,0,0,0,0,0,0,0,0
894,129,1522,-16264,2420,0,0,0,0,0,0,0,0,0,0,0
895,129,1156,-16308,2270,0,0,0,0,0,0,0,0,0,0,0
896,129,954,-16406,2192,0,0,0,0,0,0,0,0,0,0,0
897,129,670,-16334,1876,0,0,0,0,0,0,0,0,0,0,0
898,129,684,-16198,2170,0,0,0,0,0,0,0,0,0,0,0
899,129,668,-16030,2262,0,0,0,0,0,0,0,0,0,0,0
900,129,896,-15778,2612,0,0,0,0,0,0,0,0,0,0,0
901,129,1238,-15624,2628,0,0,0,0,0,0,0,0,0,0,0
902,129,1378,-15806,2734,0,0,0,0,0,0,0,0,0,0,0
903,129,1594,-15798,2878,0,0,0,0,0,0,0,0,0,0,0
904,129,1742,-15804,2892,0,0,0,0,0,0,0,0,0,0,0
905,129,1802,-16104,2660,0,0,0,0,0,0,0,0,0,0,0
906,129,1858,-16564,2650,0,0,0,0,0,0,0,0,0,0,0
907,129,1510,-16508,2286,0,0,0,0,0,0,0,0,0,0,0
908,129,1168,-16388,2168,0,0,0,0,0,0,0,0,0,0,0
909,129,1034,-16194,2288,0,0,0,0,0,0,0,0,0,0,0
910,129,888,-16058,2220,0,0,0,0,0,0,0,0,0,0,0
911,129,820,-15908,2220,0,0,0,0,0,0,0,0,0,0,0
912,129,818,-15714,2538,0,0,0,0,0,0,0,0,0,0,0
913,129,1098,-15578,2610,0,0,0,0,0,0,0,0,0,0,0
914,129,1166,-15670,2580,0,0,0,0,0,0,0,0,0,0,0
915,129,1346,-15840,2530,0,0,0,0,0,0,0,0,0,0,0
916,129,1564,-15996,2734,0,0,0,0,0,0,0,0,0,0,0
917,129,1508,-16388,2572,0,0,0,0,0,0,0,0,0,0,0
918,129,1604,-16260,2544,0,0,0,0,0,0,0,0,0,0,0
919,129,1372,-16266,2348,0,0,0,0,0,0,0,0,0,0,0
920,129,1304,-16208,2350,0,0,0,0,0,0,0,0,0,0,0
921,129,1146,-16414,2142,0,0,0,0,0,0,0,0,0,0,0
922,129,1110,-16026,2392,0,0,0,0,0,0,0,0,0,0,0
923,129,1112,-15934,2410,0,0,0,0,0,0,0,0,0,0,0
924,129,1048,-15914,2510,0,0,0,0,0,0,0,0,0,0,0
925,129,1142,-15774,2416,0,0,0,0,0,0,0,0,0,0,0
926,129,1102,-15956,2510,0,0,0,0,0,0,0,0,0,0,0
927,129,1310,-15926,2418,0,0,0,0,0,0,0,0,0,0,0
928,129,1452,-15962,2608,0,0,0,0,0,0,0,0,0,0,0
929,129,1348,-16008,2342,0,0,0,0,0,0,0,0,0,0,0
930,129,1382,-16306,2500,0,0,0,0,0,0,0,0,0,0,0
931,129,1436,-16316,2324,0,0,0,0,0,0,0,0,0,0,0
932,129,1218,-16270,2224,0,0,0,0,0,0,0,0,0,0,0
933,129,1206,-16078,2232,0,0,0,0,0,0,0,0,0,0,0
934,129,1104,-16038,2362,0,0,0,0,0,0,0,0,0,0,0
935,129,1146,-16018,2288,0,0,0,0,0,0,0,0,0,0,0
936,129,1178,-16022,2296,0,0,0,0,0,0,0,0,0,0,0
937,129,1292,-15946,2450,0,0,0,0,0,0,0,0,0,0,0
938,129,1398,-15974,2484,0,0,0,0,0,0,0,0,0,0,0
939,129,1492,-16206,2350,0,0,0,0,0,0,0,0,0,0,0
940,129,1510,-16286,2644,0,0,0,0,0,0,0,0,0,0,0
941,129,1440,-16228,2490,0,0,0,0,0,0,0,0,0,0,0
942,129,1378,-16196,2494,0,0,0,0,0,0,0,0,0,0,0
943,129,1304,-16136,2362,0,0,0,0,0,0,0,0,0,0,0
944,129,1096,-16060,2202,0,0,0,0,0,0,0,0,0,0,0
945,129,1034,-16060,2216,0,0,0,0,0,0,0,0,0,0,0
946,129,1078,-15878,2420,0,0,0,0,0,0,0,0,0,0,0
947,129,1272,-15850,2338,0,0,0,0,0,0,0,0,0,0,0
948,129,1164,-15866,2494,0,0,0,0,0,0,0,0,0,0,0
949,129,1296,-15988,2424,0,0,0,0,0,0,0,0,0,0,0
950,129,1380,-16008,2618,0,0,0,0,0,0,0,0,0,0,0
951,129,1448,-16102,2478,0,0,0,0,0,0,0,0,0,0,0
952,129,1404,-16036,2556,0,0,0,0,0,0,0,0,0,0,0
953,129,1184,-15932,2458,0,0,0,0,0,0,0,0,0,0,0
954,129,1166,-15884,2312,0,0,0,0,0,0,0,0,0,0,0
955,129,1170,-16138,2438,0,0,0,0,0,0,0,0,0,0,0
956,129,1154,-16032,2468,0,0,0,0,0,0,0,0,0,0,0
957,129,1168,-16030,2492,0,0,0,0,0,0,0,0,0,0,0
958,129,1208,-16078,2444,0,0,0,0,0,0,0,0,0,0,0
959,129,1308,-16276,2304,0,0,0,0,0,0,0,0,0,0,0
960,129,1356,-16048,2544,0,0,0,0,0,0,0,0,0,0,0
961,129,1362,-15948,2446,0,0,0,0,0,0,0,0,0,0,0
962,129,1220,-16074,2494,0,0,0,0,0,0,0,0,0,0,0
963,129,1258,-16044,2440,0,0,0,0,0,0,0,0,0,0,0
964,129,1196,-16040,2474,0,0,0,0,0,0,0,0,0,0,0
965,129,1238,-15872,2400,0,0,0,0,0,0,0,0,0,0,0
966,129,1172,-16124,2242,0,0,0,0,0,0,0,0,0,0,0
967,129,1116,-16130,2184,0,0,0,0,0,0,0,0,0,0,0
968,129,1076,-15932,2306,0,0,0,0,0,0,0,0,0,0,0
969,129,1262,-16058,2300,0,0,0,0,0,0,0,0,0,0,0
970,129,1338,-16102,2416,0,0,0,0,0,0,0,0,0,0,0
971,129,1256,-15978,2512,0,0,0,0,0,0,0,0,0,0,0
972,129,1256,-15914,2532,0,0,0,0,0,0,0,0,0,0,0
973,129,1378,-15894,2542,0,0,0,0,0,0,0,0,0,0,0
974,129,1426,-16012,2554,0,0,0,0,0,0,0,0,0,0,0
975,129,1364,-16156,2348,0,0,0,0,0,0,0,0,0,0,0
976,129,1414,-16206,2316,0,0,0,0,0,0,0,0,0,0,0
977,129,1248,-16162,2160,0,0,0,0,0,0,0,0,0,0,0
978,129,1144,-16252,2314,0,0,0,0,0,0,0,0,0,0,0
979,129,1202,-16096,2000,0,0,0,0,0,0,0,0,0,0,0
980,129,1282,-16118,2456,0,0,0,0,0,0,0,0,0,0,0
981,129,1292,-16092,2180,0,0,0,0,0,0,0,0,0,0,0
982,129,1206,-16116,2270,0,0,0,0,0,0,0,0,0,0,0
983,129,1084,-15924,2278,0,0,0,0,0,0,0,0,0,0,0
984,129,1220,-15954,2502,0,0,0,0,0,0,0,0,0,0,0
985,129,1302,-16040,2286,0,0,0,0,0,0,0,0,0,0,0
986,129,1260,-15966,2462,0,0,0,0,0,0,0,0,0,0,0
987,129,1260,-15876,2496,0,0,0,0,0,0,0,0,0,0,0
988,129,1308,-15814,2468,0,0,0,0,0,0,0,0,0,0,0
989,129,1240,-16080,2448,0,0,0,0,0,0,0,0,0,0,0
990,129,1214,-16186,2444,0,0,0,0,0,0,0,0,0,0,0
991,129,1140,-16070,2312,0,0,0,0,0,0,0,0,0,0,0
992,129,1204,-15988,2332,0,0,0,0,0,0,0,0,0,0,0
993,129,1234,-16142,2164,0,0,0,0,0,0,0,0,0,0,0
994,129,1242,-16118,2386,0,0,0,0,0,0,0,0,0,0,0
995,129,1292,-16080,2342,0,0,0,0,0,0,0,0,0,0,0
996,129,1226,-15996,2348,0,0,0,0,0,0,0,0,0,0,0
997,129,1252,-16156,2396,0,0,0,0,0,0,0,0,0,0,0
998,129,1250,-16036,2244,0,0,0,0,0,0,0,0,0,0,0
999,129,1252,-16030,2360,0,0,0,0,0,0,0,0,0,0,0
1000,129,1178,-15934,2398,0,0,0,0,0,0,0,0,0,0,0
1001,129,1214,-15920,2444,0,0,0,0,0,0,0,0,0,0,0
1002,129,1170,-16176,2482,0,0,0,0,0,0,0,0,0,0,0
1003,129,1230,-16202,2452,0,0,0,0,0,0,0,0,0,0,0
1004,129,1260,-16116,2284,0,0,0,0,0,0,0,0,0,0,0
1005,129,1176,-16248,2294,0,0,0,0,0,0,0,0,0,0,0
1006,129,1172,-16128,2380,0,0,0,0,0,0,0,0,0,0,0
1007,129,1246,-16108,2424,0,0,0,0,0,0,0,0,0,0,0
1008,129,1328,-16072,2334,0,0,0,0,0,0,0,0,0,0,0
1009,129,1204,-16054,2364,0,0,0,0,0,0,0,0,0,0,0
1010,129,1206,-16102,2238,0,0,0,0,0,0,0,0,0,0,0
1011,129,1272,-16006,2428,0,0,0,0,0,0,0,0,0,0,0
1012,129,1192,-16108,2444,0,0,0,0,0,0,0,0,0,0,0
1013,129,1252,-16068,2404,0,0,0,0,0,0,0,0,0,0,0
1014,129,1368,-15932,2358,0,0,0,0,0,0,0,0,0,0,0
1015,129,1166,-16082,2402,0,0,0,0,0,0,0,0,0,0,0
1016,129,1232,-15862,2436,0,0,0,0,0,0,0,0,0,0,0
1017,129,1226,-16056,2362,0,0,0,0,0,0,0,0,0,0,0
1018,129,1336,-15918,2394,0,0,0,0,0,0,0,0,0,0,0
1019,129,1378,-16068,2378,0,0,0,0,0,0,0,0,0,0,0
1020,129,1322,-16208,2188,0,0,0,0,0,0,0,0,0,0,0
1021,129,1050,-16354,2006,0,0,0,0,0,0,0,0,0,0,0
1022,129,1226,-16310,2074,0,0,0,0,0,0,0,0,0,0,0
1023,129,1268,-16298,2292,0,0,0,0,0,0,0,0,0,0,0
1024,129,1190,-16160,2106,0,0,0,0,0,0,0,0,0,0,0
1025,129,1218,-16040,2122,0,0,0,0,0,0,0,0,0,0,0
1026,129,1126,-16002,2266,0,0,0,0,0,0,0,0,0,0,0
1027,129,1302,-16062,2412,0,0,0,0,0,0,0,0,0,0,0
1028,129,1396,-16216,2500,0,0,0,0,0,0,0,0,0,0,0
1029,129,1308,-15988,2332,0,0,0,0,0,0,0,0,0,0,0
1030,129,1314,-15810,2416,0,0,0,0,0,0,0,0,0,0,0
1031,129,1288,-15874,2384,0,0,0,0,0,0,0,0,0,0,0
1032,129,1244,-16038,2262,0,0,0,0,0,0,0,0,0,0,0
1033,129,1138,-16000,2320,0,0,0,0,0,0,0,0,0,0,0
1034,129,1102,-16168,2234,0,0,0,0,0,0,0,0,0,0,0
1035,129,1186,-16052,2300,0,0,0,0,0,0,0,0,0,0,0
1036,129,1338,-16058,2280,0,0,0,0,0,0,0,0,0,0,0
1037,129,1298,-16290,2198,0,0,0,0,0,0,0,0,0,0,0
1038,129,1262,-16276,2140,0,0,0,0,0,0,0,0,0,0,0
1039,129,1350,-16290,2214,0,0,0,0,0,0,0,0,0,0,0
1040,129,1452,-16188,2162,0,0,0,0,0,0,0,0,0,0,0
1041,129,1432,-16054,2160,0,0,0,0,0,0,0,0,0,0,0
1042,129,1424,-16128,2382,0,0,0,0,0,0,0,0,0,0,0
1043,129,1360,-16004,2302,0,0,0,0,0,0,0,0,0,0,0
1044,129,1258,-15956,2482,0,0,0,0,0,0,0,0,0,0,0
1045,129,1324,-15934,2404,0,0,0,0,0,0,0,0,0,0,0
1046,129,1276,-15956,2412,0,0,0,0,0,0,0,0,0,0,0
1047,129,1254,-16002,2156,0,0,0,0,0,0,0,0,0,0,0
1048,129,1322,-16034,2300,0,0,0,0,0,0,0,0,0,0,0
1049,129,1286,-16116,2078,0,0,0,0,0,0,0,0,0,0,0
1050,129,1350,-15956,2156,0,0,0,0,0,0,0,0,0,0,0
1051,129,1288,-16102,2158,0,0,0,0,0,0,0,0,0,0,0
1052,129,1236,-16184,2184,0,0,0,0,0,0,0,0,0,0,0
1053,129,1214,-16222,1994,0,0,0,0,0,0,0,0,0,0,0
1054,129,1290,-16164,2244,0,0,0,0,0,0,0,0,0,0,0
1055,129,1376,-16240,2150,0,0,0,0,0,0,0,0,0,0,0
1056,129,1336,-16092,2248,0,0,0,0,0,0,0,0,0,0,0
1057,129,1378,-15960,2322,0,0,0,0,0,0,0,0,0,0,0
1058,129,1406,-16124,2338,0,0,0,0,0,0,0,0,0,0,0
1059,129,1392,-16256,2254,0,0,0,0,0,0,0,0,0,0,0
1060,129,1384,-15962,2358,0,0,0,0,0,0,0,0,0,0,0
1061,129,1448,-15952,2284,0,0,0,0,0,0,0,0,0,0,0
1062,129,1288,-15830,2366,0,0,0,0,0,0,0,0,0,0,0
1063,129,1262,-16030,2238,0,0,0,0,0,0,0,0,0,0,0
1064,129,1276,-16004,2310,0,0,0,0,0,0,0,0,0,0,0
1065,129,1312,-15914,2254,0,0,0,0,0,0,0,0,0,0,0
1066,129,1342,-16074,2240,0,0,0,0,0,0,0,0,0,0,0
1067,129,1332,-16032,2096,0,0,0,0,0,0,0,0,0,0,0
1068,129,1374,-16306,2102,0,0,0,0,0,0,0,0,0,0,0
1069,129,1472,-16196,2208,0,0,0,0,0,0,0,0,0,0,0
1070,129,1270,-16126,2224,0,0,0,0,0,0,0,0,0,0,0
1071,129,1358,-15946,2216,0,0,0,0,0,0,0,0,0,0,0
1072,129,1338,-16020,2184,0,0,0,0,0,0,0,0,0,0,0
1073,129,1376,-16098,2230,0,0,0,0,0,0,0,0,0,0,0
1074,129,1294,-16052,2154,0,0,0,0,0,0,0,0,0,0,0
1075,129,1348,-16056,2266,0,0,0,0,0,0,0,0,0,0,0
1076,129,1340,-16062,2292,0,0,0,0,0,0,0,0,0,0,0
1077,129,1350,-15840,2218,0,0,0,0,0,0,0,0,0,0,0
1078,129,1290,-15932,2316,0,0,0,0,0,0,0,0,0,0,0
1079,129,1298,-16064,2244,0,0,0,0,0,0,0,0,0,0,0
1080,129,1344,-15968,2182,0,0,0,0,0,0,0,0,0,0,0
1081,129,1196,-16082,2018,0,0,0,0,0,0,0,0,0,0,0
1082,129,1292,-16054,2024,0,0,0,0,0,0,0,0,0,0,0
1083,129,1462,-16164,2014,0,0,0,0,0,0,0,0,0,0,0
1084,129,1388,-15936,2252,0,0,0,0,0,0,0,0,0,0,0
1085,129,1532,-16196,2256,0,0,0,0,0,0,0,0,0,0,0
1086,129,1478,-16132,2136,0,0,0,0,0,0,0,0,0,0,0
1087,129,1402,-16156,2024,0,0,0,0,0,0,0,0,0,0,0
1088,129,1374,-16176,2116,0,0,0,0,0,0,0,0,0,0,0
1089,129,1294,-15976,2230,0,0,0,0,0,0,0,0,0,0,0
1090,129,1366,-15972,2276,0,0,0,0,0,0,0,0,0,0,0
1091,129,1306,-15972,2146,0,0,0,0,0,0,0,0,0,0,0
1092,129,1310,-16138,2262,0,0,0,0,0,0,0,0,0,0,0
1093,129,1392,-16208,2162,0,0,0,0,0,0,0,0,0,0,0
1094,129,1390,-16154,2164,0,0,0,0,0,0,0,0,0,0,0
1095,129,1348,-16118,2208,0,0,0,0,0,0,0,0,0,0,0
1096,129,1430,-15992,2184,0,0,0,0,0,0,0,0,0,0,0
1097,129,1322,-16026,2072,0,0,0,0,0,0,0,0,0,0,0
1098,129,1252,-16012,2186,0,0,0,0,0,0,0,0,0,0,0
1099,129,1428,-16166,2300,0,0,0,0,0,0,0,0,0,0,0
1100,129,1268,-16138,2154,0,0,0,0,0,0,0,0,0,0,0
1101,129,1426,-16194,2224,0,0,0,0,0,0,0,0,0,0,0
1102,129,1348,-16008,2204,0,0,0,0,0,0,0,0,0,0,0
1103,129,1316,-16070,2108,0,0,0,0,0,0,0,0,0,0,0
1104,129,1338,-16178,2150,0,0,0,0,0,0,0,0,0,0,0
1105,129,1402,-15956,2252,0,0,0,0,0,0,0,0,0,0,0
1106,129,1452,-16048,2112,0,0,0,0,0,0,0,0,0,0,0
1107,129,1354,-16118,2120,0,0,0,0,0,0,0,0,0,0,0
1108,129,1294,-16116,2164,0,0,0,0,0,0,0,0,0,0,0
1109,129,1422,-16136,2152,0,0,0,0,0,0,0,0,0,0,0
1110,129,1520,-16068,2236,0,0,0,0,0,0,0,0,0,0,0
1111,129,1504,-16104,2302,0,0,0,0,0,0,0,0,0,0,0
1112,129,1384,-16102,2264,0,0,0,0,0,0,0,0,0,0,0
1113,129,1174,-16038,2056,0,0,0,0,0,0,0,0,0,0,0
1114,129,1268,-16006,2246,0,0,0,0,0,0,0,0,0,0,0
1115,129,1150,-16050,2024,0,0,0,0,0,0,0,0,0,0,0
1116,129,1264,-16052,2042,0,0,0,0,0,0,0,0,0,0,0
1117,129,1354,-16118,2170,0,0,0,0,0,0,0,0,0,0,0
1118,129,1438,-16156,2184,0,0,0,0,0,0,0,0,0,0,0
1119,129,1502,-16064,2186,0,0,0,0,0,0,0,0,0,0,0
1120,129,1396,-15996,2184,0,0,0,0,0,0,0,0,0,0,0
1121,129,1358,-16118,2254,0,0,0,0,0,0,0,0,0,0,0
1122,129,1408,-16160,2228,0,0,0,0,0,0,0,0,0,0,0
1123,129,1304,-16024,2148,0,0,0,0,0,0,0,0,0,0,0
1124,129,1276,-15878,2108,0,0,0,0,0,0,0,0,0,0,0
1125,129,1224,-15810,2130,0,0,0,0,0,0,0,0,0,0,0
1126,129,1326,-15940,2294,0,0,0,0,0,0,0,0,0,0,0
1127,129,1320,-16102,2286,0,0,0,0,0,0,0,0,0,0,0
1128,129,1538,-15956,2330,0,0,0,0,0,0,0,0,0,0,0
1129,129,1482,-16062,2342,0,0,0,0,0,0,0,0,0,0,0
1130,129,1388,-15958,2176,0,0,0,0,0,0,0,0,0,0,0
1131,129,1404,-16150,2170,0,0,0,0,0,0,0,0,0,0,0
1132,129,1392,-16322,2148,0,0,0,0,0,0,0,0,0,0,0
1133,129,1404,-16256,2088,0,0,0,0,0,0,0,0,0,0,0
1134,129,1366,-16094,2106,0,0,0,0,0,0,0,0,0,0,0
1135,129,1380,-16108,2100,0,0,0,0,0,0,0,0,0,0,0
1136,129,1394,-16048,2258,0,0,0,0,0,0,0,0,0,0,0
1137,129,1440,-16218,2194,0,0,0,0,0,0,0,0,0,0,0
1138,129,1406,-16088,2138,0,0,0,0,0,0,0,0,0,0,0
1139,129,1442,-15966,2236,0,0,0,0,0,0,0,0,0,0,0
1140,129,1224,-16172,2212,0,0,0,0,0,0,0,0,0,0,0
1141,129,1364,-15948,2194,0,0,0,0,0,0,0,0,0,0,0
1142,129,1356,-16110,2060,0,0,0,0,0,0,0,0,0,0,0
1143,129,1412,-16156,2184,0,0,0,0,0,0,0,0,0,0,0
1144,129,1482,-16238,2148,0,0,0,0,0,0,0,0,0,0,0
1145,129,1406,-16136,2068,0,0,0,0,0,0,0,0,0,0,0
1146,129,1442,-15966,2184,0,0,0,0,0,0,0,0,0,0,0
1147,129,1480,-16114,2018,0,0,0,0,0,0,0,0,0,0,0
1148,129,1448,-15874,2202,0,0,0,0,0,0,0,0,0,0,0
1149,129,1482,-15866,2228,0,0,0,0,0,0,0,0,0,0,0
1150,129,1280,-16036,2062,0,0,0,0,0,0,0,0,0,0,0
1151,129,1370,-16030,2132,0,0,0,0,0,0,0,0,0,0,0
1152,129,1294,-16028,2122,0,0,0,0,0,0,0,0,0,0,0
1153,129,1396,-16158,2020,0,0,0,0,0,0,0,0,0,0,0
1154,129,1374,-16118,2150,0,0,0,0,0,0,0,0,0,0,0
1155,129,1362,-16250,2126,0,0,0,0,0,0,0,0,0,0,0
1156,129,1424,-16024,2136,0,0,0,0,0,0,0,0,0,0,0
1157,129,1470,-15922,2294,0,0,0,0,0,0,0,0,0,0,0
1158,129,1446,-15968,2258,0,0,0,0,0,0,0,0,0,0,0
1159,129,1294,-16138,2198,0,0,0,0,0,0,0,0,0,0,0
1160,129,1406,-15980,2218,0,0,0,0,0,0,0,0,0,0,0
1161,129,1400,-16052,2076,0,0,0,0,0,0,0,0,0,0,0
1162,129,1514,-16068,2224,0,0,0,0,0,0,0,0,0,0,0
1163,129,1484,-16148,2100,0,0,0,0,0,0,0,0,0,0,0
1164,129,1398,-16076,2020,0,0,0,0,0,0,0,0,0,0,0
1165,129,1368,-16030,2156,0,0,0,0,0,0,0,0,0,0,0
1166,129,1340,-16172,2190,0,0,0,0,0,0,0,0,0,0,0
1167,129,1466,-15988,2140,0,0,0,0,0,0,0,0,0,0,0
1168,129,1310,-16068,2184,0,0,0,0,0,0,0,0,0,0,0
1169,129,1310,-16078,2064,0,0,0,0,0,0,0,0,0,0,0
1170,129,1302,-16190,2194,0,0,0,0,0,0,0,0,0,0,0
1171,129,1364,-16122,2134,0,0,0,0,0,0,0,0,0,0,0
1172,129,1414,-16072,2190,0,0,0,0,0,0,0,0,0,0,0
1173,129,1594,-16136,2224,0,0,0,0,0,0,0,0,0,0,0
1174,129,1504,-16172,2150,0,0,0,0,0,0,0,0,0,0,0
1175,129,1388,-16188,2068,0,0,0,0,0,0,0,0,0,0,0
1176,129,1414,-16026,2240,0,0,0,0,0,0,0,0,0,0,0
1177,129,1508,-16028,2320,0,0,0,0,0,0,0,0,0,0,0
1178,129,1436,-15998,2274,0,0,0,0,0,0,0,0,0,0,0
1179,129,1390,-16212,2080,0,0,0,0,0,0,0,0,0,0,0
1180,129,1398,-16066,2128,0,0,0,0,0,0,0,0,0,0,0
1181,129,1432,-16088,2106,0,0,0,0,0,0,0,0,0,0,0
1182,129,1416,-16212,2108,0,0,0,0,0,0,0,0,0,0,0
1183,129,1448,-16172,2118,0,0,0,0,0,0,0,0,0,0,0
1184,129,1324,-16114,1902,0,0,0,0,0,0,0,0,0,0,0
1185,129,1334,-16150,2124,0,0,0,0,0,0,0,0,0,0,0
1186,129,1328,-16158,1900,0,0,0,0,0,0,0,0,0,0,0
1187,129,1392,-16132,1988,0,0,0,0,0,0,0,0,0,0,0
1188,129,1372,-16112,2212,0,0,0,0,0,0,0,0,0,0,0
1189,129,1484,-15926,2230,0,0,0,0,0,0,0,0,0,0,0
1190,129,1486,-16002,2188,0,0,0,0,0,0,0,0,0,0,0
1191,129,1430,-16158,2192,0,0,0,0,0,0,0,0,0,0,0
1192,129,1480,-16188,2118,0,0,0,0,0,0,0,0,0,0,0
1193,129,1294,-16056,2114,0,0,0,0,0,0,0,0,0,0,0
1194,129,1448,-15810,2090,0,0,0,0,0,0,0,0,0,0,0
1195,129,1502,-15740,1500,0,0,0,0,0,0,0,0,0,0,0
1196,129,1318,-15764,1800,0,0,0,0,0,0,0,0,0,0,0
1197,129,1468,-16704,2342,0,0,0,0,0,0,0,0,0,0,0
1198,129,1248,-15848,2010,0,0,0,0,0,0,0,0,0,0,0
1199,129,1358,-16240,1968,0,0,0,0,0,0,0,0,0,0,0
1200,129,1448,-16262,1956,0,0,0,0,0,0,0,0,0,0,0
1201,129,1454,-16140,2004,0,0,0,0,0,0,0,0,0,0,0
1202,129,1434,-16392,1968,0,0,0,0,0,0,0,0,0,0,0
1203,129,1298,-15966,1842,0,0,0,0,0,0,0,0,0,0,0
1204,129,1450,-16108,2150,0,0,0,0,0,0,0,0,0,0,0
1205,129,1188,-16108,1916,0,0,0,0,0,0,0,0,0,0,0
1206,129,1356,-15948,2152,0,0,0,0,0,0,0,0,0,0,0
1207,129,1336,-15946,2198,0,0,0,0,0,0,0,0,0,0,0
1208,129,1382,-15996,2084,0,0,0,0,0,0,0,0,0,0,0
1209,129,1508,-16032,2070,0,0,0,0,0,0,0,0,0,0,0
1210,129,1332,-16136,1892,0,0,0,0,0,0,0,0,0,0,0
1211,129,1408,-16074,1922,0,0,0,0,0,0,0,0,0,0,0
1212,129,1356,-16048,2128,0,0,0,0,0,0,0,0,0,0,0
1213,129,1378,-16190,2002,0,0,0,0,0,0,0,0,0,0,0
1214,129,1244,-16096,1840,0,0,0,0,0,0,0,0,0,0,0
1215,129,1376,-16098,1866,0,0,0,0,0,0,0,0,0,0,0
1216,129,1276,-16072,2000,0,0,0,0,0,0,0,0,0,0,0
1217,129,1316,-16066,2004,0,0,0,0,0,0,0,0,0,0,0
1218,129,1382,-16238,1892,0,0,0,0,0,0,0,0,0,0,0
1219,129,1368,-16190,1964,0,0,0,0,0,0,0,0,0,0,0
1220,129,1478,-15992,1988,0,0,0,0,0,0,0,0,0,0,0
1221,129,1506,-16018,2090,0,0,0,0,0,0,0,0,0,0,0
1222,129,1432,-16204,1950,0,0,0,0,0,0,0,0,0,0,0
1223,129,1340,-16260,1866,0,0,0,0,0,0,0,0,0,0,0
1224,129,1366,-16160,2008,0,0,0,0,0,0,0,0,0,0,0
1225,129,1526,-16010,2040,0,0,0,0,0,0,0,0,0,0,0
1226,129,1490,-16084,2050,0,0,0,0,0,0,0,0,0,0,0
1227,129,1414,-16178,1952,0,0,0,0,0,0,0,0,0,0,0
1228,129,1390,-16164,1876,0,0,0,0,0,0,0,0,0,0,0
1229,129,1380,-16098,1888,0,0,0,0,0,0,0,0,0,0,0
1230,129,1480,-16074,2104,0,0,0,0,0,0,0,0,0,0,0
1231,129,1384,-16094,1808,0,0,0,0,0,0,0,0,0,0,0
1232,129,1480,-16096,1818,0,0,0,0,0,0,0,0,0,0,0
1233,129,1410,-16098,1916,0,0,0,0,0,0,0,0,0,0,0
1234,129,1374,-16150,1974,0,0,0,0,0,0,0,0,0,0,0
1235,129,1522,-16118,1878,0,0,0,0,0,0,0,0,0,0,0
1236,129,1468,-16080,2086,0,0,0,0,0,0,0,0,0,0,0
1237,129,1552,-16184,2012,0,0,0,0,0,0,0,0,0,0,0
1238,129,1510,-16086,1902,0,0,0,0,0,0,0,0,0,0,0
1239,129,1526,-16068,2006,0,0,0,0,0,0,0,0,0,0,0
1240,129,1518,-16044,1982,0,0,0,0,0,0,0,0,0,0,0
1241,129,1510,-16188,1922,0,0,0,0,0,0,0,0,0,0,0
1242,129,1516,-16036,1902,0,0,0,0,0,0,0,0,0,0,0
1243,129,1390,-16006,1852,0,0,0,0,0,0,0,0,0,0,0
1244,129,1378,-16052,1842,0,0,0,0,0,0,0,0,0,0,0
1245,129,1452,-16122,1902,0,0,0,0,0,0,0,0,0,0,0
1246,129,1436,-16144,1790,0,0,0,0,0,0,0,0,0,0,0
1247,129,1406,-16184,1760,0,0,0,0,0,0,0,0,0,0,0
1248,129,1498,-16208,1912,0,0,0,0,0,0,0,0,0,0,0
1249,129,1576,-16266,2008,0,0,0,0,0,0,0,0,0,0,0
1250,129,1420,-16130,2074,0,0,0,0,0,0,0,0,0,0,0
1251,129,1366,-15956,1990,0,0,0,0,0,0,0,0,0,0,0
1252,129,1330,-15956,1922,0,0,0,0,0,0,0,0,0,0,0
1253,129,1304,-16034,1826,0,0,0,0,0,0,0,0,0,0,0
1254,129,1400,-16098,1906,0,0,0,0,0,0,0,0,0,0,0
1255,129,1500,-16104,1928,0,0,0,0,0,0,0,0,0,0,0
1256,129,1512,-16034,1944,0,0,0,0,0,0,0,0,0,0,0
1257,129,1460,-16022,1986,0,0,0,0,0,0,0,0,0,0,0
1258,129,1430,-16254,2020,0,0,0,0,0,0,0,0,0,0,0
1259,129,1358,-16246,1928,0,0,0,0,0,0,0,0,0,0,0
1260,129,1230,-16244,1778,0,0,0,0,0,0,0,0,0,0,0
1261,129,1248,-16134,1866,0,0,0,0,0,0,0,0,0,0,0
1262,129,1312,-15948,1818,0,0,0,0,0,0,0,0,0,0,0
1263,129,1340,-16144,1762,0,0,0,0,0,0,0,0,0,0,0
1264,129,1436,-16224,1920,0,0,0,0,0,0,0,0,0,0,0
1265,129,1500,-16116,2020,0,0,0,0,0,0,0,0,0,0,0
1266,129,1518,-16026,2174,0,0,0,0,0,0,0,0,0,0,0
1267,129,1482,-16130,1956,0,0,0,0,0,0,0,0,0,0,0
1268,129,1466,-16176,1910,0,0,0,0,0,0,0,0,0,0,0
1269,129,1364,-16030,2052,0,0,0,0,0,0,0,0,0,0,0
1270,129,1410,-15884,2066,0,0,0,0,0,0,0,0,0,0,0
1271,129,1400,-16094,1902,0,0,0,0,0,0,0,0,0,0,0
1272,129,1306,-16100,1956,0,0,0,0,0,0,0,0,0,0,0
1273,129,1330,-16016,1968,0,0,0,0,0,0,0,0,0,0,0
1274,129,1406,-16008,1992,0,0,0,0,0,0,0,0,0,0,0
1275,129,1510,-16094,1836,0,0,0,0,0,0,0,0,0,0,0
1276,129,1326,-16138,1766,0,0,0,0,0,0,0,0,0,0,0
1277,129,1248,-16376,1864,0,0,0,0,0,0,0,0,0,0,0
1278,129,1318,-16076,1864,0,0,0,0,0,0,0,0,0,0,0
1279,129,1434,-16146,1868,0,0,0,0,0,0,0,0,0,0,0
1280,129,1390,-16012,1942,0,0,0,0,0,0,0,0,0,0,0
1281,129,1296,-16098,1878,0,0,0,0,0,0,0,0,0,0,0
1282,129,1388,-16132,1846,0,0,0,0,0,0,0,0,0,0,0
1283,129,1362,-16084,1914,0,0,0,0,0,0,0,0,0,0,0
1284,129,1416,-16074,1958,0,0,0,0,0,0,0,0,0,0,0
1285,129,1420,-16068,2032,0,0,0,0,0,0,0,0,0,0,0
1286,129,1392,-15988,2014,0,0,0,0,0,0,0,0,0,0,0
1287,129,1296,-16036,1958,0,0,0,0,0,0,0,0,0,0,0
1288,129,1240,-16124,1796,0,0,0,0,0,0,0,0,0,0,0
1289,129,1342,-16004,1838,0,0,0,0,0,0,0,0,0,0,0
1290,129,1334,-16024,1850,0,0,0,0,0,0,0,0,0,0,0
1291,129,1348,-16124,1674,0,0,0,0,0,0,0,0,0,0,0
1292,129,1232,-16218,1984,0,0,0,0,0,0,0,0,0,0,0
1293,129,1408,-16314,1820,0,0,0,0,0,0,0,0,0,0,0
1294,129,1460,-16222,1904,0,0,0,0,0,0,0,0,0,0,0
1295,129,1410,-16122,1902,0,0,0,0,0,0,0,0,0,0,0
1296,129,1344,-16062,1834,0,0,0,0,0,0,0,0,0,0,0
1297,129,1234,-16080,1880,0,0,0,0,0,0,0,0,0,0,0
1298,129,1230,-16124,1928,0,0,0,0,0,0,0,0,0,0,0
1299,129,1336,-16114,1822,0,0,0,0,0,0,0,0,0,0,0
1300,129,1398,-16102,1940,0,0,0,0,0,0,0,0,0,0,0
1301,129,1400,-16146,1960,0,0,0,0,0,0,0,0,0,0,0
1302,129,1386,-16142,1962,0,0,0,0,0,0,0,0,0,0,0
1303,129,1380,-16126,1786,0,0,0,0,0,0,0,0,0,0,0
1304,129,1362,-16086,1824,0,0,0,0,0,0,0,0,0,0,0
1305,129,1192,-16178,1852,0,0,0,0,0,0,0,0,0,0,0
1306,129,1352,-15942,1844,0,0,0,0,0,0,0,0,0,0,0
1307,129,1284,-16066,1938,0,0,0,0,0,0,0,0,0,0,0
1308,129,1278,-16134,1772,0,0,0,0,0,0,0,0,0,0,0
1309,129,1396,-16014,1916,0,0,0,0,0,0,0,0,0,0,0
1310,129,1484,-16070,2048,0,0,0,0,0,0,0,0,0,0,0
1311,129,1434,-16156,1970,0,0,0,0,0,0,0,0,0,0,0
1312,129,1424,-15932,1928,0,0,0,0,0,0,0,0,0,0,0
1313,129,1410,-16200,1886,0,0,0,0,0,0,0,0,0,0,0
1314,129,1330,-16074,1878,0,0,0,0,0,0,0,0,0,0,0
1315,129,1316,-16134,1798,0,0,0,0,0,0,0,0,0,0,0
1316,129,1394,-15980,1818,0,0,0,0,0,0,0,0,0,0,0
1317,129,1318,-16280,1880,0,0,0,0,0,0,0,0,0,0,0
1318,129,1318,-16038,1816,0,0,0,0,0,0,0,0,0,0,0
1319,129,1376,-16174,1936,0,0,0,0,0,0,0,0,0,0,0
1320,129,1360,-15990,1886,0,0,0,0,0,0,0,0,0,0,0
1321,129,1328,-16202,1738,0,0,0,0,0,0,0,0,0,0,0
1322,129,1318,-16052,1870,0,0,0,0,0,0,0,0,0,0,0
1323,129,1364,-16136,1726,0,0,0,0,0,0,0,0,0,0,0
1324,129,1422,-16138,1802,0,0,0,0,0,0,0,0,0,0,0
1325,129,1300,-16068,1732,0,0,0,0,0,0,0,0,0,0,0
1326,129,1346,-16016,1918,0,0,0,0,0,0,0,0,0,0,0
1327,129,1358,-16108,1836,0,0,0,0,0,0,0,0,0,0,0
1328,129,1398,-16166,1898,0,0,0,0,0,0,0,0,0,0,0
1329,129,1404,-16060,1774,0,0,0,0,0,0,0,0,0,0,0
1330,129,1358,-16180,2066,0,0,0,0,0,0,0,0,0,0,0
1331,129,1320,-16064,1932,0,0,0,0,0,0,0,0,0,0,0
1332,129,1472,-16186,2014,0,0,0,0,0,0,0,0,0,0,0
1333,129,1310,-16044,1760,0,0,0,0,0,0,0,0,0,0,0
1334,129,1204,-16028,1810,0,0,0,0,0,0,0,0,0,0,0
1335,129,1120,-16166,1792,0,0,0,0,0,0,0,0,0,0,0
1336,129,1322,-16150,1802,0,0,0,0,0,0,0,0,0,0,0
1337,129,1322,-16040,1752,0,0,0,0,0,0,0,0,0,0,0
1338,129,1364,-16112,1814,0,0,0,0,0,0,0,0,0,0,0
1339,129,1358,-16194,1778,0,0,0,0,0,0,0,0,0,0,0
1340,129,1336,-16238,1842,0,0,0,0,0,0,0,0,0,0,0
1341,129,1372,-16264,1784,0,0,0,0,0,0,0,0,0,0,0
1342,129,1492,-16140,1932,0,0,0,0,0,0,0,0,0,0,0
1343,129,1478,-16080,1928,0,0,0,0,0,0,0,0,0,0,0
1344,129,1332,-15992,1914,0,0,0,0,0,0,0,0,0,0,0
1345,129,1296,-16032,1874,0,0,0,0,0,0,0,0,0,0,0
1346,129,1396,-16032,1910,0,0,0,0,0,0,0,0,0,0,0
1347,129,1360,-16220,1794,0,0,0,0,0,0,0,0,0,0,0
1348,129,1410,-16090,1906,0,0,0,0,0,0,0,0,0,0,0
1349,129,1368,-16080,1714,0,0,0,0,0,0,0,0,0,0,0
1350,129,1316,-16072,1874,0,0,0,0,0,0,0,0,0,0,0
1351,129,1292,-16136,1812,0,0,0,0,0,0,0,0,0,0,0
1352,129,1248,-16066,1834,0,0,0,0,0,0,0,0,0,0,0
1353,129,1374,-15984,1792,0,0,0,0,0,0,0,0,0,0,0
1354,129,1462,-15940,1882,0,0,0,0,0,0,0,0,0,0,0
1355,129,1390,-16170,1628,0,0,0,0,0,0,0,0,0,0,0
1356,129,1292,-16256,1784,0,0,0,0,0,0,0,0,0,0,0
1357,129,1390,-16126,1816,0,0,0,0,0,0,0,0,0,0,0
1358,129,1480,-16168,1742,0,0,0,0,0,0,0,0,0,0,0
1359,129,1506,-16324,1688,0,0,0,0,0,0,0,0,0,0,0
1360,129,1376,-16302,1690,0,0,0,0,0,0,0,0,0,0,0
1361,129,1402,-16092,1758,0,0,0,0,0,0,0,0,0,0,0
1362,129,1376,-16184,1852,0,0,0,0,0,0,0,0,0,0,0
1363,129,1450,-16228,1696,0,0,0,0,0,0,0,0,0,0,0
1364,129,1434,-16164,1926,0,0,0,0,0,0,0,0,0,0,0
1365,129,1202,-16194,1706,0,0,0,0,0,0,0,0,0,0,0
1366,129,1258,-16052,1920,0,0,0,0,0,0,0,0,0,0,0
1367,129,1414,-15932,1960,0,0,0,0,0,0,0,0,0,0,0
1368,129,1450,-16004,1992,0,0,0,0,0,0,0,0,0,0,0
1369,129,1416,-15974,1938,0,0,0,0,0,0,0,0,0,0,0
1370,129,1440,-15868,2006,0,0,0,0,0,0,0,0,0,0,0
1371,129,1462,-15880,1950,0,0,0,0,0,0,0,0,0,0,0
1372,129,1448,-16060,1936,0,0,0,0,0,0,0,0,0,0,0
1373,129,1326,-15992,1840,0,0,0,0,0,0,0,0,0,0,0
1374,129,1442,-16060,1736,0,0,0,0,0,0,0,0,0,0,0
1375,129,1368,-16216,1754,0,0,0,0,0,0,0,0,0,0,0
1376,129,1384,-16192,1786,0,0,0,0,0,0,0,0,0,0,0
1377,129,1484,-16342,2044,0,0,0,0,0,0,0,0,0,0,0
1378,129,1646,-16328,1860,0,0,0,0,0,0,0,0,0,0,0
1379,129,1478,-16270,1736,0,0,0,0,0,0,0,0,0,0,0
1380,129,1382,-16046,1726,0,0,0,0,0,0,0,0,0,0,0
1381,129,1216,-16056,1734,0,0,0,0,0,0,0,0,0,0,0
1382,129,1456,-15948,1842,0,0,0,0,0,0,0,0,0,0,0
1383,129,1326,-15996,1814,0,0,0,0,0,0,0,0,0,0,0
1384,129,1416,-16054,1826,0,0,0,0,0,0,0,0,0,0,0
1385,129,1284,-16290,1602,0,0,0,0,0,0,0,0,0,0,0
1386,129,1376,-16260,1682,0,0,0,0,0,0,0,0,0,0,0
1387,129,1438,-16280,1804,0,0,0,0,0,0,0,0,0,0,0
1388,129,1424,-16024,1950,0,0,0,0,0,0,0,0,0,0,0
1389,129,1434,-15864,1790,0,0,0,0,0,0,0,0,0,0,0
1390,129,1348,-16034,1794,0,0,0,0,0,0,0,0,0,0,0
1391,129,1340,-16258,1804,0,0,0,0,0,0,0,0,0,0,0
1392,129,1464,-16176,1866,0,0,0,0,0,0,0,0,0,0,0
1393,129,1490,-16110,1824,0,0,0,0,0,0,0,0,0,0,0
1394,129,1470,-16212,1836,0,0,0,0,0,0,0,0,0,0,0
1395,129,1428,-16392,1718,0,0,0,0,0,0,0,0,0,0,0
1396,129,1554,-16302,1628,0,0,0,0,0,0,0,0,0,0,0
1397,129,1594,-16806,1216,0,0,0,0,0,0,0,0,0,0,0
1398,129,1406,-16936,918,0,0,0,0,0,0,0,0,0,0,0
1399,129,1276,-17274,488,0,0,0,0,0,0,0,0,0,0,0
1400,129,1520,-16840,828,0,0,0,0,0,0,0,0,0,0,0
1401,129,1486,-16772,1442,0,0,0,0,0,0,0,0,0,0,0
1402,129,1112,-16366,1382,0,0,0,0,0,0,0,0,0,0,0
1403,129,1856,-16202,1840,0,0,0,0,0,0,0,0,0,0,0
1404,129,1840,-15688,1790,0,0,0,0,0,0,0,0,0,0,0
1405,129,1602,-15834,2014,0,0,0,0,0,0,0,0,0,0,0
1406,129,1718,-16046,1588,0,0,0,0,0,0,0,0,0,0,0
1407,129,1956,-16066,1932,0,0,0,0,0,0,0,0,0,0,0
1408,129,2136,-15592,1734,0,0,0,0,0,0,0,0,0,0,0
1409,129,2864,-15886,1796,0,0,0,0,0,0,0,0,0,0,0
1410,129,2480,-16318,1444,0,0,0,0,0,0,0,0,0,0,0
1411,129,2400,-16358,1344,0,0,0,0,0,0,0,0,0,0,0
1412,129,2522,-15872,1450,0,0,0,0,0,0,0,0,0,0,0
1413,129,2366,-15844,1304,0,0,0,0,0,0,0,0,0,0,0
1414,129,2344,-15600,1452,0,0,0,0,0,0,0,0,0,0,0
1415,129,2758,-15254,1474,0,0,0,0,0,0,0,0,0,0,0
1416,129,2852,-15522,1602,0,0,0,0,0,0,0,0,0,0,0
1417,129,2968,-15928,1228,0,0,0,0,0,0,0,0,0,0,0
1418,129,2416,-15566,1082,0,0,0,0,0,0,0,0,0,0,0
1419,129,2386,-15688,1022,0,0,0,0,0,0,0,0,0,0,0
1420,129,2464,-15836,862,0,0,0,0,0,0,0,0,0,0,0
1421,129,2620,-15766,1126,0,0,0,0,0,0,0,0,0,0,0
1422,129,2746,-15578,1110,0,0,0,0,0,0,0,0,0,0,0
1423,129,2892,-15516,1126,0,0,0,0,0,0,0,0,0,0,0
1424,129,2840,-15608,1042,0,0,0,0,0,0,0,0,0,0,0
1425,129,2772,-15584,954,0,0,0,0,0,0,0,0,0,0,0
1426,129,2752,-16108,972,0,0,0,0,0,0,0,0,0,0,0
1427,129,2502,-16270,796,0,0,0,0,0,0,0,0,0,0,0
1428,129,2460,-16176,776,0,0,0,0,0,0,0,0,0,0,0
1429,129,2438,-16018,1080,0,0,0,0,0,0,0,0,0,0,0
1430,129,2244,-15612,1192,0,0,0,0,0,0,0,0,0,0,0
1431,129,2224,-15930,976,0,0,0,0,0,0,0,0,0,0,0
1432,129,1874,-16702,910,0,0,0,0,0,0,0,0,0,0,0
1433,129,1584,-16478,776,0,0,0,0,0,0,0,0,0,0,0
1434,129,1786,-15476,892,0,0,0,0,0,0,0,0,0,0,0
1435,129,1718,-14826,906,0,0,0,0,0,0,0,0,0,0,0
1436,129,1724,-15254,794,0,0,0,0,0,0,0,0,0,0,0
1437,129,1540,-16200,524,0,0,0,0,0,0,0,0,0,0,0
1438,129,660,-16264,-82,0,0,0,0,0,0,0,0,0,0,0
1439,129,648,-16312,-542,0,0,0,0,0,0,0,0,0,0,0
1440,129,558,-15994,-268,0,0,0,0,0,0,0,0,0,0,0
1441,129,434,-16228,-462,0,0,0,0,0,0,0,0,0,0,0
1442,129,38,-16466,-826,0,0,0,0,0,0,0,0,0,0,0
1443,129,-194,-16380,-950,0,0,0,0,0,0,0,0,0,0,0
1444,129,-264,-16332,-876,0,0,0,0,0,0,0,0,0,0,0
1445,129,-194,-16300,-1082,0,0,0,0,0,0,0,0,0,0,0
1446,129,-128,-16258,-984,0,0,0,0,0,0,0,0,0,0,0
1447,129,-38,-16428,-1224,0,0,0,0,0,0,0,0,0,0,0
1448,129,-70,-16810,-1496,0,0,0,0,0,0,0,0,0,0,0
1449,129,30,-16914,-1692,0,0,0,0,0,0,0,0,0,0,0
1450,129,206,-16958,-1670,0,0,0,0,0,0,0,0,0,0,0
1451,129,254,-16854,-1664,0,0,0,0,0,0,0,0,0,0,0
1452,129,454,-16644,-1616,0,0,0,0,0,0,0,0,0,0,0
1453,129,540,-16784,-1412,0,0,0,0,0,0,0,0,0,0,0
1454,129,740,-17062,-1022,0,0,0,0,0,0,0,0,0,0,0
1455,129,864,-16774,-878,0,0,0,0,0,0,0,0,0,0,0
1456,129,1080,-16492,-432,0,0,0,0,0,0,0,0,0,0,0
1457,129,1228,-17296,-384,0,0,0,0,0,0,0,0,0,0,0
1458,129,1296,-16950,-170,0,0,0,0,0,0,0,0,0,0,0
1459,129,1200,-15900,196,0,0,0,0,0,0,0,0,0,0,0
1460,129,1246,-14978,530,0,0,0,0,0,0,0,0,0,0,0
1461,129,1990,-14614,748,0,0,0,0,0,0,0,0,0,0,0
1462,129,2144,-15082,602,0,0,0,0,0,0,0,0,0,0,0
1463,129,2272,-15996,-38,0,0,0,0,0,0,0,0,0,0,0
1464,129,2286,-16622,-352,0,0,0,0,0,0,0,0,0,0,0
1465,129,2148,-16794,-800,0,0,0,0,0,0,0,0,0,0,0
1466,129,2100,-16776,-918,0,0,0,0,0,0,0,0,0,0,0
1467,129,2190,-16656,-894,0,0,0,0,0,0,0,0,0,0,0
1468,129,2410,-16198,-744,0,0,0,0,0,0,0,0,0,0,0
1469,129,2294,-16058,-862,0,0,0,0,0,0,0,0,0,0,0
1470,129,2272,-16216,-778,0,0,0,0,0,0,0,0,0,0,0
1471,129,2438,-16330,-648,0,0,0,0,0,0,0,0,0,0,0
1472,129,2436,-16118,-724,0,0,0,0,0,0,0,0,0,0,0
1473,129,2394,-16642,-442,0,0,0,0,0,0,0,0,0,0,0
1474,129,2364,-16824,-346,0,0,0,0,0,0,0,0,0,0,0
1475,129,2392,-16478,-210,0,0,0,0,0,0,0,0,0,0,0
1476,129,2128,-16030,-134,0,0,0,0,0,0,0,0,0,0,0
1477,129,1622,-16010,-218,0,0,0,0,0,0,0,0,0,0,0
1478,129,1364,-16064,-232,0,0,0,0,0,0,0,0,0,0,0
1479,129,1086,-16332,-488,0,0,0,0,0,0,0,0,0,0,0
1480,129,744,-16210,-672,0,0,0,0,0,0,0,0,0,0,0
1481,129,536,-15662,-922,0,0,0,0,0,0,0,0,0,0,0
1482,129,696,-15660,-814,0,0,0,0,0,0,0,0,0,0,0
1483,129,654,-15870,-1052,0,0,0,0,0,0,0,0,0,0,0
1484,129,714,-16236,-1072,0,0,0,0,0,0,0,0,0,0,0
1485,129,730,-16448,-1278,0,0,0,0,0,0,0,0,0,0,0
1486,129,980,-16434,-1044,0,0,0,0,0,0,0,0,0,0,0
1487,129,1164,-16556,-866,0,0,0,0,0,0,0,0,0,0,0
1488,129,1228,-16464,-690,0,0,0,0,0,0,0,0,0,0,0
1489,129,1334,-16214,-372,0,0,0,0,0,0,0,0,0,0,0
1490,129,1358,-15868,-154,0,0,0,0,0,0,0,0,0,0,0
1491,129,1324,-15868,-60,0,0,0,0,0,0,0,0,0,0,0
1492,129,1050,-16076,-92,0,0,0,0,0,0,0,0,0,0,0
1493,129,1036,-16060,-132,0,0,0,0,0,0,0,0,0,0,0
1494,129,1076,-15796,-62,0,0,0,0,0,0,0,0,0,0,0
1495,129,1156,-15684,-138,0,0,0,0,0,0,0,0,0,0,0
1496,129,1254,-15520,-78,0,0,0,0,0,0,0,0,0,0,0
1497,129,1428,-15832,-98,0,0,0,0,0,0,0,0,0,0,0
1498,129,1328,-16010,-188,0,0,0,0,0,0,0,0,0,0,0
1499,129,1590,-16072,-258,0,0,0,0,0,0,0,0,0,0,0
1500,129,1618,-16176,-414,0,0,0,0,0,0,0,0,0,0,0
1501,129,1744,-16542,-592,0,0,0,0,0,0,0,0,0,0,0
1502,129,1850,-16510,-638,0,0,0,0,0,0,0,0,0,0,0
1503,129,2034,-16298,-774,0,0,0,0,0,0,0,0,0,0,0
1504,129,2006,-16386,-874,0,0,0,0,0,0,0,0,0,0,0
1505,129,1750,-16892,-1096,0,0,0,0,0,0,0,0,0,0,0
1506,129,1564,-16728,-1114,0,0,0,0,0,0,0,0,0,0,0
1507,129,1586,-16378,-988,0,0,0,0,0,0,0,0,0,0,0
1508,129,1650,-16312,-900,0,0,0,0,0,0,0,0,0,0,0
1509,129,1748,-16132,-706,0,0,0,0,0,0,0,0,0,0,0
1510,129,1818,-16008,-608,0,0,0,0,0,0,0,0,0,0,0
1511,129,1632,-16302,-714,0,0,0,0,0,0,0,0,0,0,0
1512,129,1652,-16072,-564,0,0,0,0,0,0,0,0,0,0,0
1513,129,1936,-15852,-228,0,0,0,0,0,0,0,0,0,0,0
1514,129,1982,-15966,-452,0,0,0,0,0,0,0,0,0,0,0
1515,129,2066,-16416,-552,0,0,0,0,0,0,0,0,0,0,0
1516,129,2238,-16420,-348,0,0,0,0,0,0,0,0,0,0,0
1517,129,2214,-16402,-412,0,0,0,0,0,0,0,0,0,0,0
1518,129,2126,-16346,-746,0,0,0,0,0,0,0,0,0,0,0
1519,129,2066,-16558,-818,0,0,0,0,0,0,0,0,0,0,0
1520,129,2018,-16496,-960,0,0,0,0,0,0,0,0,0,0,0
1521,129,1924,-16474,-956,0,0,0,0,0,0,0,0,0,0,0
1522,129,1510,-16384,-1020,0,0,0,0,0,0,0,0,0,0,0
1523,129,1296,-15994,-852,0,0,0,0,0,0,0,0,0,0,0
1524,129,1480,-15880,-754,0,0,0,0,0,0,0,0,0,0,0
1525,129,1350,-16072,-746,0,0,0,0,0,0,0,0,0,0,0
1526,129,1544,-15872,-472,0,0,0,0,0,0,0,0,0,0,0
1527,129,1826,-15710,-184,0,0,0,0,0,0,0,0,0,0,0
1528,129,1860,-15692,-220,0,0,0,0,0,0,0,0,0,0,0
1529,129,1796,-16002,-264,0,0,0,0,0,0,0,0,0,0,0
1530,129,2108,-15974,-78,0,0,0,0,0,0,0,0,0,0,0
1531,129,2328,-16148,-206,0,0,0,0,0,0,0,0,0,0,0
1532,129,2388,-16486,-606,0,0,0,0,0,0,0,0,0,0,0
1533,129,2380,-16746,-750,0,0,0,0,0,0,0,0,0,0,0
1534,129,2206,-16794,-1142,0,0,0,0,0,0,0,0,0,0,0
1535,129,1950,-16692,-1244,0,0,0,0,0,0,0,0,0,0,0
1536,129,1684,-16726,-1196,0,0,0,0,0,0,0,0,0,0,0
1537,129,1500,-16628,-1254,0,0,0,0,0,0,0,0,0,0,0
1538,129,1500,-16264,-1118,0,0,0,0,0,0,0,0,0,0,0
1539,129,1318,-16020,-922,0,0,0,0,0,0,0,0,0,0,0
1540,129,1020,-15814,-734,0,0,0,0,0,0,0,0,0,0,0
1541,129,1222,-15918,-624,0,0,0,0,0,0,0,0,0,0,0
1542,129,1404,-15922,-326,0,0,0,0,0,0,0,0,0,0,0
1543,129,1662,-15952,-262,0,0,0,0,0,0,0,0,0,0,0
1544,129,1882,-15722,-22,0,0,0,0,0,0,0,0,0,0,0
1545,129,1972,-15882,-44,0,0,0,0,0,0,0,0,0,0,0
1546,129,2032,-15844,344,0,0,0,0,0,0,0,0,0,0,0
1547,129,2200,-15792,-78,0,0,0,0,0,0,0,0,0,0,0
1548,129,2268,-15978,-186,0,0,0,0,0,0,0,0,0,0,0
1549,129,2120,-16386,-392,0,0,0,0,0,0,0,0,0,0,0
1550,129,2132,-16416,-650,0,0,0,0,0,0,0,0,0,0,0
1551,129,2024,-16632,-860,0,0,0,0,0,0,0,0,0,0,0
1552,129,1786,-16586,-1060,0,0,0,0,0,0,0,0,0,0,0
1553,129,1576,-16492,-1062,0,0,0,0,0,0,0,0,0,0,0
1554,129,1426,-16578,-1104,0,0,0,0,0,0,0,0,0,0,0
1555,129,1330,-16304,-1134,0,0,0,0,0,0,0,0,0,0,0
1556,129,1298,-15976,-866,0,0,0,0,0,0,0,0,0,0,0
1557,129,1436,-16136,-880,0,0,0,0,0,0,0,0,0,0,0
1558,129,1676,-16178,-608,0,0,0,0,0,0,0,0,0,0,0
1559,129,1864,-15878,-374,0,0,0,0,0,0,0,0,0,0,0
1560,129,1716,-16076,-302,0,0,0,0,0,0,0,0,0,0,0
1561,129,1910,-15836,-170,0,0,0,0,0,0,0,0,0,0,0
1562,129,2044,-15780,-108,0,0,0,0,0,0,0,0,0,0,0
1563,129,2154,-15936,-138,0,0,0,0,0,0,0,0,0,0,0
1564,129,2178,-16176,-226,0,0,0,0,0,0,0,0,0,0,0
1565,129,2184,-16442,-430,0,0,0,0,0,0,0,0,0,0,0
1566,129,2076,-16716,-666,0,0,0,0,0,0,0,0,0,0,0
1567,129,1866,-16600,-888,0,0,0,0,0,0,0,0,0,0,0
1568,129,1656,-16308,-942,0,0,0,0,0,0,0,0,0,0,0
1569,129,1548,-16114,-1018,0,0,0,0,0,0,0,0,0,0,0
1570,129,1644,-16208,-718,0,0,0,0,0,0,0,0,0,0,0
1571,129,1680,-16218,-840,0,0,0,0,0,0,0,0,0,0,0
1572,129,1616,-16298,-846,0,0,0,0,0,0,0,0,0,0,0
1573,129,1540,-16176,-906,0,0,0,0,0,0,0,0,0,0,0
1574,129,1452,-16148,-470,0,0,0,0,0,0,0,0,0,0,0
1575,129,1756,-16024,-406,0,0,0,0,0,0,0,0,0,0,0
1576,129,2098,-15948,-68,0,0,0,0,0,0,0,0,0,0,0
1577,129,2100,-15886,-22,0,0,0,0,0,0,0,0,0,0,0
1578,129,1918,-16062,-110,0,0,0,0,0,0,0,0,0,0,0
1579,129,2044,-15978,24,0,0,0,0,0,0,0,0,0,0,0
1580,129,2016,-16134,-150,0,0,0,0,0,0,0,0,0,0,0
1581,129,2078,-16306,-388,0,0,0,0,0,0,0,0,0,0,0
1582,129,2172,-16436,-300,0,0,0,0,0,0,0,0,0,0,0
1583,129,2070,-16444,-646,0,0,0,0,0,0,0,0,0,0,0
1584,129,2018,-16474,-674,0,0,0,0,0,0,0,0,0,0,0
1585,129,1618,-16584,-906,0,0,0,0,0,0,0,0,0,0,0
1586,129,1406,-16488,-976,0,0,0,0,0,0,0,0,0,0,0
1587,129,1082,-16304,-1098,0,0,0,0,0,0,0,0,0,0,0
1588,129,1116,-16150,-834,0,0,0,0,0,0,0,0,0,0,0
1589,129,1070,-15886,-700,0,0,0,0,0,0,0,0,0,0,0
1590,129,1316,-15998,-452,0,0,0,0,0,0,0,0,0,0,0
1591,129,1226,-15954,-342,0,0,0,0,0,0,0,0,0,0,0
1592,129,1430,-15654,-166,0,0,0,0,0,0,0,0,0,0,0
1593,129,1568,-15558,-46,0,0,0,0,0,0,0,0,0,0,0
1594,129,1794,-15734,98,0,0,0,0,0,0,0,0,0,0,0
1595,129,1880,-15940,-30,0,0,0,0,0,0,0,0,0,0,0
1596,129,1960,-15910,142,0,0,0,0,0,0,0,0,0,0,0
1597,129,1928,-16044,-292,0,0,0,0,0,0,0,0,0,0,0
1598,129,1886,-16436,-436,0,0,0,0,0,0,0,0,0,0,0
1599,129,1786,-16552,-814,0,0,0,0,0,0,0,0,0,0,0
1600,129,1722,-16750,-1082,0,0,0,0,0,0,0,0,0,0,0
1601,129,1470,-16576,-1308,0,0,0,0,0,0,0,0,0,0,0
1602,129,1368,-16674,-1230,0,0,0,0,0,0,0,0,0,0,0
1603,129,1330,-16606,-1028,0,0,0,0,0,0,0,0,0,0,0
1604,129,1230,-16218,-872,0,0,0,0,0,0,0,0,0,0,0
1605,129,1112,-15858,-598,0,0,0,0,0,0,0,0,0,0,0
1606,129,1302,-16026,-574,0,0,0,0,0,0,0,0,0,0,0
1607,129,1342,-16108,-492,0,0,0,0,0,0,0,0,0,0,0
1608,129,1658,-16000,-238,0,0,0,0,0,0,0,0,0,0,0
1609,129,1822,-15908,-54,0,0,0,0,0,0,0,0,0,0,0
1610,129,2016,-15932,-14,0,0,0,0,0,0,0,0,0,0,0
1611,129,1994,-16384,6,0,0,0,0,0,0,0,0,0,0,0
1612,129,2176,-15986,54,0,0,0,0,0,0,0,0,0,0,0
1613,129,2332,-16056,-74,0,0,0,0,0,0,0,0,0,0,0
1614,129,2010,-16364,-78,0,0,0,0,0,0,0,0,0,0,0
1615,129,1854,-16358,-506,0,0,0,0,0,0,0,0,0,0,0
1616,129,1676,-16460,-622,0,0,0,0,0,0,0,0,0,0,0
1617,129,1460,-16624,-1060,0,0,0,0,0,0,0,0,0,0,0
1618,129,1228,-16494,-1106,0,0,0,0,0,0,0,0,0,0,0
1619,129,962,-16438,-988,0,0,0,0,0,0,0,0,0,0,0
1620,129,1082,-16136,-828,0,0,0,0,0,0,0,0,0,0,0
1621,129,1016,-16128,-870,0,0,0,0,0,0,0,0,0,0,0
1622,129,1194,-16024,-726,0,0,0,0,0,0,0,0,0,0,0
1623,129,1270,-15868,-568,0,0,0,0,0,0,0,0,0,0,0
1624,129,1578,-16026,-200,0,0,0,0,0,0,0,0,0,0,0
1625,129,1874,-16002,-90,0,0,0,0,0,0,0,0,0,0,0
1626,129,2306,-16144,56,0,0,0,0,0,0,0,0,0,0,0
1627,129,2318,-16162,-2,0,0,0,0,0,0,0,0,0,0,0
1628,129,2290,-16104,32,0,0,0,0,0,0,0,0,0,0,0
1629,129,2370,-16264,-68,0,0,0,0,0,0,0,0,0,0,0
1630,129,2202,-16502,-288,0,0,0,0,0,0,0,0,0,0,0
1631,129,1964,-16440,-544,0,0,0,0,0,0,0,0,0,0,0
1632,129,1918,-16354,-670,0,0,0,0,0,0,0,0,0,0,0
1633,129,1744,-16564,-990,0,0,0,0,0,0,0,0,0,0,0
1634,129,1400,-16604,-1016,0,0,0,0,0,0,0,0,0,0,0
1635,129,1422,-16406,-778,0,0,0,0,0,0,0,0,0,0,0
1636,129,1294,-16218,-770,0,0,0,0,0,0,0,0,0,0,0
1637,129,1188,-16164,-766,0,0,0,0,0,0,0,0,0,0,0
1638,129,1128,-15926,-574,0,0,0,0,0,0,0,0,0,0,0
1639,129,1256,-15778,-364,0,0,0,0,0,0,0,0,0,0,0
1640,129,1342,-15604,-160,0,0,0,0,0,0,0,0,0,0,0
1641,129,1482,-15876,-30,0,0,0,0,0,0,0,0,0,0,0
1642,129,1632,-15822,190,0,0,0,0,0,0,0,0,0,0,0
1643,129,2002,-15912,136,0,0,0,0,0,0,0,0,0,0,0
1644,129,2012,-15748,600,0,0,0,0,0,0,0,0,0,0,0
1645,129,2700,-15960,38,0,0,0,0,0,0,0,0,0,0,0
1646,129,2246,-16340,-444,0,0,0,0,0,0,0,0,0,0,0
1647,129,2098,-16638,-808,0,0,0,0,0,0,0,0,0,0,0
1648,129,1882,-16830,-1018,0,0,0,0,0,0,0,0,0,0,0
1649,129,1598,-16910,-1390,0,0,0,0,0,0,0,0,0,0,0
1650,129,1680,-16864,-1380,0,0,0,0,0,0,0,0,0,0,0
1651,129,1386,-16714,-1190,0,0,0,0,0,0,0,0,0,0,0
1652,129,1472,-16316,-926,0,0,0,0,0,0,0,0,0,0,0
1653,129,1082,-16264,-848,0,0,0,0,0,0,0,0,0,0,0
1654,129,1004,-15780,-584,0,0,0,0,0,0,0,0,0,0,0
1655,129,1088,-15520,-524,0,0,0,0,0,0,0,0,0,0,0
1656,129,1304,-15750,-194,0,0,0,0,0,0,0,0,0,0,0
1657,129,1502,-15926,-32,0,0,0,0,0,0,0,0,0,0,0
1658,129,1894,-15882,192,0,0,0,0,0,0,0,0,0,0,0
1659,129,2026,-15842,8,0,0,0,0,0,0,0,0,0,0,0
1660,129,2092,-15950,178,0,0,0,0,0,0,0,0,0,0,0
1661,129,2214,-15998,28,0,0,0,0,0,0,0,0,0,0,0
1662,129,2392,-16166,88,0,0,0,0,0,0,0,0,0,0,0
1663,129,2242,-16584,-392,0,0,0,0,0,0,0,0,0,0,0
1664,129,1932,-16746,-780,0,0,0,0,0,0,0,0,0,0,0
1665,129,1740,-16804,-998,0,0,0,0,0,0,0,0,0,0,0
1666,129,1734,-16490,-1148,0,0,0,0,0,0,0,0,0,0,0
1667,129,1896,-16514,-1210,0,0,0,0,0,0,0,0,0,0,0
1668,129,2060,-16644,-882,0,0,0,0,0,0,0,0,0,0,0
1669,129,1452,-16624,-1110,0,0,0,0,0,0,0,0,0,0,0
1670,129,1230,-16046,-802,0,0,0,0,0,0,0,0,0,0,0
1671,129,1012,-15968,-826,0,0,0,0,0,0,0,0,0,0,0
1672,129,938,-15942,-662,0,0,0,0,0,0,0,0,0,0,0
1673,129,1244,-15994,-474,0,0,0,0,0,0,0,0,0,0,0
1674,129,1522,-15922,-120,0,0,0,0,0,0,0,0,0,0,0
1675,129,1666,-15676,-22,0,0,0,0,0,0,0,0,0,0,0
1676,129,1718,-15704,162,0,0,0,0,0,0,0,0,0,0,0
1677,129,1724,-15738,252,0,0,0,0,0,0,0,0,0,0,0
1678,129,1804,-15770,108,0,0,0,0,0,0,0,0,0,0,0
1679,129,1952,-16008,42,0,0,0,0,0,0,0,0,0,0,0
1680,129,2164,-16126,112,0,0,0,0,0,0,0,0,0,0,0
1681,129,2436,-16176,-146,0,0,0,0,0,0,0,0,0,0,0
1682,129,2424,-16642,-362,0,0,0,0,0,0,0,0,0,0,0
1683,129,2376,-16696,-544,0,0,0,0,0,0,0,0,0,0,0
1684,129,2216,-16620,-538,0,0,0,0,0,0,0,0,0,0,0
1685,129,2150,-16624,-898,0,0,0,0,0,0,0,0,0,0,0
1686,129,1778,-16466,-338,0,0,0,0,0,0,0,0,0,0,0
1687,129,1978,-16164,-640,0,0,0,0,0,0,0,0,0,0,0
1688,129,1508,-16070,-724,0,0,0,0,0,0,0,0,0,0,0
1689,129,1080,-16028,-814,0,0,0,0,0,0,0,0,0,0,0
1690,129,1070,-16168,-884,0,0,0,0,0,0,0,0,0,0,0
1691,129,1060,-16134,-750,0,0,0,0,0,0,0,0,0,0,0
1692,129,1116,-15930,-332,0,0,0,0,0,0,0,0,0,0,0
1693,129,934,-15608,232,0,0,0,0,0,0,0,0,0,0,0
1694,129,1714,-15738,-500,0,0,0,0,0,0,0,0,0,0,0
1695,129,1306,-15820,-396,0,0,0,0,0,0,0,0,0,0,0
1696,129,1462,-15734,-348,0,0,0,0,0,0,0,0,0,0,0
1697,129,1656,-15762,-348,0,0,0,0,0,0,0,0,0,0,0
1698,129,1946,-16098,-380,0,0,0,0,0,0,0,0,0,0,0
1699,129,2188,-16296,-596,0,0,0,0,0,0,0,0,0,0,0
1700,129,2078,-16798,-632,0,0,0,0,0,0,0,0,0,0,0
1701,129,2030,-16584,-686,0,0,0,0,0,0,0,0,0,0,0
1702,129,2208,-16592,-626,0,0,0,0,0,0,0,0,0,0,0
1703,129,2088,-16512,-610,0,0,0,0,0,0,0,0,0,0,0
1704,129,1910,-16366,-698,0,0,0,0,0,0,0,0,0,0,0
1705,129,1604,-16132,-742,0,0,0,0,0,0,0,0,0,0,0
1706,129,1384,-16048,-576,0,0,0,0,0,0,0,0,0,0,0
1707,129,1414,-16060,-684,0,0,0,0,0,0,0,0,0,0,0
1708,129,1762,-15982,-332,0,0,0,0,0,0,0,0,0,0,0
1709,129,1842,-16062,-258,0,0,0,0,0,0,0,0,0,0,0
1710,129,1944,-15916,-190,0,0,0,0,0,0,0,0,0,0,0
1711,129,2056,-15846,-130,0,0,0,0,0,0,0,0,0,0,0
1712,129,2020,-16034,-26,0,0,0,0,0,0,0,0,0,0,0
1713,129,2310,-16146,-198,0,0,0,0,0,0,0,0,0,0,0
1714,129,2240,-16282,-356,0,0,0,0,0,0,0,0,0,0,0
1715,129,2096,-16460,-662,0,0,0,0,0,0,0,0,0,0,0
1716,129,2020,-16582,-918,0,0,0,0,0,0,0,0,0,0,0
1717,129,1988,-16794,-1176,0,0,0,0,0,0,0,0,0,0,0
1718,129,1920,-16786,-1226,0,0,0,0,0,0,0,0,0,0,0
1719,129,1366,-16646,-1116,0,0,0,0,0,0,0,0,0,0,0
1720,129,1372,-16280,-888,0,0,0,0,0,0,0,0,0,0,0
1721,129,1280,-15808,-788,0,0,0,0,0,0,0,0,0,0,0
1722,129,1398,-15794,-632,0,0,0,0,0,0,0,0,0,0,0
1723,129,1404,-15828,-462,0,0,0,0,0,0,0,0,0,0,0
1724,129,1544,-15880,-318,0,0,0,0,0,0,0,0,0,0,0
1725,129,1752,-16004,-102,0,0,0,0,0,0,0,0,0,0,0
1726,129,1752,-15902,-44,0,0,0,0,0,0,0,0,0,0,0
1727,129,2144,-16212,58,0,0,0,0,0,0,0,0,0,0,0
1728,129,1684,-16080,-178,0,0,0,0,0,0,0,0,0,0,0
1729,129,2416,-15994,102,0,0,0,0,0,0,0,0,0,0,0
1730,129,2096,-16488,468,0,0,0,0,0,0,0,0,0,0,0
1731,129,2000,-16372,-470,0,0,0,0,0,0,0,0,0,0,0
1732,129,2110,-17432,-590,0,0,0,0,0,0,0,0,0,0,0
1733,129,1496,-17670,-886,0,0,0,0,0,0,0,0,0,0,0
1734,129,1222,-17498,-628,0,0,0,0,0,0,0,0,0,0,0
1735,129,542,-16454,-606,0,0,0,0,0,0,0,0,0,0,0
1736,129,1216,-16402,-542,0,0,0,0,0,0,0,0,0,0,0
1737,129,840,-15360,882,0,0,0,0,0,0,0,0,0,0,0
1738,129,520,-12908,1874,0,0,0,0,0,0,0,0,0,0,0
1739,129,1736,-12148,2818,0,0,0,0,0,0,0,0,0,0,0
1740,129,1558,-12716,1786,0,0,0,0,0,0,0,0,0,0,0
1741,129,1782,-13892,1218,0,0,0,0,0,0,0,0,0,0,0
1742,129,816,-14570,166,0,0,0,0,0,0,0,0,0,0,0
1743,129,-40,-15642,-1272,0,0,0,0,0,0,0,0,0,0,0
1744,129,1486,-17422,-874,0,0,0,0,0,0,0,0,0,0,0
1745,129,584,-17870,-2440,0,0,0,0,0,0,0,0,0,0,0
1746,129,3020,-19680,-1402,0,0,0,0,0,0,0,0,0,0,0
1747,129,4108,-20860,-876,0,0,0,0,0,0,0,0,0,0,0
1748,129,4200,-19914,-692,0,0,0,0,0,0,0,0,0,0,0
1749,129,3334,-17820,-428,0,0,0,0,0,0,0,0,0,0,0
1750,129,1566,-16700,-786,0,0,0,0,0,0,0,0,0,0,0
1751,129,-56,-16678,-1138,0,0,0,0,0,0,0,0,0,0,0
1752,129,-1000,-16494,-922,0,0,0,0,0,0,0,0,0,0,0
1753,129,-682,-15156,-26,0,0,0,0,0,0,0,0,0,0,0
1754,129,-422,-14382,666,0,0,0,0,0,0,0,0,0,0,0
1755,129,-468,-13976,822,0,0,0,0,0,0,0,0,0,0,0
1756,129,-1192,-13868,698,0,0,0,0,0,0,0,0,0,0,0
1757,129,-1336,-13788,582,0,0,0,0,0,0,0,0,0,0,0
1758,129,-1548,-13848,590,0,0,0,0,0,0,0,0,0,0,0
1759,129,-2470,-13502,-10,0,0,0,0,0,0,0,0,0,0,0
1760,129,-2218,-13644,-1102,0,0,0,0,0,0,0,0,0,0,0
1761,129,-2312,-14110,-516,0,0,0,0,0,0,0,0,0,0,0
1762,129,-2446,-14184,-792,0,0,0,0,0,0,0,0,0,0,0
1763,129,-1030,-12844,-1124,0,0,0,0,0,0,0,0,0,0,0
1764,129,834,-14804,708,0,0,0,0,0,0,0,0,0,0,0
1765,129,530,-16120,76,0,0,0,0,0,0,0,0,0,0,0
1766,129,726,-17534,-174,0,0,0,0,0,0,0,0,0,0,0
1767,129,976,-18474,-48,0,0,0,0,0,0,0,0,0,0,0
1768,129,1348,-18754,14,0,0,0,0,0,0,0,0,0,0,0
1769,129,2356,-18282,-2102,0,0,0,0,0,0,0,0,0,0,0
1770,129,256,-18086,406,0,0,0,0,0,0,0,0,0,0,0
1771,129,678,-18452,218,0,0,0,0,0,0,0,0,0,0,0
1772,129,1444,-17112,1218,0,0,0,0,0,0,0,0,0,0,0
1773,129,954,-16302,1518,0,0,0,0,0,0,0,0,0,0,0
1774,129,1352,-16828,1488,0,0,0,0,0,0,0,0,0,0,0
1775,129,1096,-16934,1294,0,0,0,0,0,0,0,0,0,0,0
1776,129,98,-16864,810,0,0,0,0,0,0,0,0,0,0,0
1777,129,496,-15848,190,0,0,0,0,0,0,0,0,0,0,0
1778,129,290,-15454,-140,0,0,0,0,0,0,0,0,0,0,0
1779,129,788,-14580,-472,0,0,0,0,0,0,0,0,0,0,0
1780,129,1182,-14300,-160,0,0,0,0,0,0,0,0,0,0,0
1781,129,1458,-14002,-418,0,0,0,0,0,0,0,0,0,0,0
1782,129,1404,-15598,-112,0,0,0,0,0,0,0,0,0,0,0
1783,129,434,-14880,-688,0,0,0,0,0,0,0,0,0,0,0
1784,129,448,-13874,-454,0,0,0,0,0,0,0,0,0,0,0
1785,129,746,-14690,-420,0,0,0,0,0,0,0,0,0,0,0
1786,129,-122,-16876,-956,0,0,0,0,0,0,0,0,0,0,0
1787,129,-808,-18246,-1100,0,0,0,0,0,0,0,0,0,0,0
1788,129,148,-17622,-320,0,0,0,0,0,0,0,0,0,0,0
1789,129,620,-17006,-190,0,0,0,0,0,0,0,0,0,0,0
1790,129,1244,-16924,956,0,0,0,0,0,0,0,0,0,0,0
1791,129,-18,-20870,366,0,0,0,0,0,0,0,0,0,0,0
1792,129,-1164,-22490,-98,0,0,0,0,0,0,0,0,0,0,0
1793,129,-1008,-21488,338,0,0,0,0,0,0,0,0,0,0,0
1794,129,486,-19626,1522,0,0,0,0,0,0,0,0,0,0,0
1795,129,214,-18902,1786,0,0,0,0,0,0,0,0,0,0,0
1796,129,218,-17324,622,0,0,0,0,0,0,0,0,0,0,0
1797,129,-200,-15322,-280,0,0,0,0,0,0,0,0,0,0,0
1798,129,22,-14108,-116,0,0,0,0,0,0,0,0,0,0,0
1799,129,272,-13262,300,0,0,0,0,0,0,0,0,0,0,0
1800,129,32,-13694,58,0,0,0,0,0,0,0,0,0,0,0
1801,129,-1662,-14954,-962,0,0,0,0,0,0,0,0,0,0,0
1802,129,-1452,-16116,-1150,0,0,0,0,0,0,0,0,0,0,0
1803,129,-932,-17000,-660,0,0,0,0,0,0,0,0,0,0,0
1804,129,-240,-17750,-190,0,0,0,0,0,0,0,0,0,0,0
1805,129,-4020,-32767,7892,0,0,0,0,0,0,0,0,0,0,0
1806,129,888,-16396,-792,0,0,0,0,0,0,0,0,0,0,0
1807,129,496,-16348,-704,0,0,0,0,0,0,0,0,0,0,0
1808,129,350,-16238,-360,0,0,0,0,0,0,0,0,0,0,0
1809,129,50,-16254,-456,0,0,0,0,0,0,0,0,0,0,0
1810,129,444,-16332,-2,0,0,0,0,0,0,0,0,0,0,0
1811,129,-48,-16260,-612,0,0,0,0,0,0,0,0,0,0,0
1812,129,-688,-16258,-1610,0,0,0,0,0,0,0,0,0,0,0
1813,129,-692,-16146,-1560,0,0,0,0,0,0,0,0,0,0,0
1814,129,186,-16364,-588,0,0,0,0,0,0,0,0,0,0,0
1815,129,2216,-16754,1372,0,0,0,0,0,0,0,0,0,0,0
1816,129,-2670,-15718,-424,0,0,0,0,0,0,0,0,0,0,0
1817,129,326,-16154,-980,0,0,0,0,0,0,0,0,0,0,0
1818,129,-1574,-15470,6890,0,0,0,0,0,0,0,0,0,0,0
1819,129,702,-16708,-312,0,0,0,0,0,0,0,0,0,0,0
1820,129,-3430,-13550,900,0,0,0,0,0,0,0,0,0,0,0
1821,129,832,-18802,1828,0,0,0,0,0,0,0,0,0,0,0
1822,129,-2506,-15714,422,0,0,0,0,0,0,0,0,0,0,0
1823,129,-1984,-15810,-90,0,0,0,0,0,0,0,0,0,0,0
1824,129,-3088,-15408,950,0,0,0,0,0,0,0,0,0,0,0
1825,129,1638,-16744,2070,0,0,0,0,0,0,0,0,0,0,0
1826,129,1780,-16738,1272,0,0,0,0,0,0,0,0,0,0,0
1827,129,-530,-16140,1010,0,0,0,0,0,0,0,0,0,0,0
1828,129,-2400,-15740,-968,0,0,0,0,0,0,0,0,0,0,0
1829,129,474,-16638,524,0,0,0,0,0,0,0,0,0,0,0
1830,129,532,-16172,640,0,0,0,0,0,0,0,0,0,0,0
1831,129,3176,-16532,288,0,0,0,0,0,0,0,0,0,0,0
1832,129,764,-16184,3234,0,0,0,0,0,0,0,0,0,0,0
1833,129,516,-16012,4744,0,0,0,0,0,0,0,0,0,0,0
1834,129,280,-15844,5386,0,0,0,0,0,0,0,0,0,0,0
1835,129,-368,-15908,3404,0,0,0,0,0,0,0,0,0,0,0
1836,129,40,-16038,3174,0,0,0,0,0,0,0,0,0,0,0
1837,129,-160,-15926,2578,0,0,0,0,0,0,0,0,0,0,0
1838,129,232,-15974,3476,0,0,0,0,0,0,0,0,0,0,0
1839,129,1126,-16246,-86,0,0,0,0,0,0,0,0,0,0,0
1840,129,-718,-16102,-960,0,0,0,0,0,0,0,0,0,0,0
1841,129,-232,-16192,-570,0,0,0,0,0,0,0,0,0,0,0
1842,129,-2544,-15712,-2868,0,0,0,0,0,0,0,0,0,0,0
1843,129,696,-16456,-1476,0,0,0,0,0,0,0,0,0,0,0
1844,129,382,-16478,-810,0,0,0,0,0,0,0,0,0,0,0
1845,129,42,-16310,-628,0,0,0,0,0,0,0,0,0,0,0
1846,129,980,-16464,584,0,0,0,0,0,0,0,0,0,0,0
1847,129,-328,-16184,-278,0,0,0,0,0,0,0,0,0,0,0
1848,129,-2354,-15796,-904,0,0,0,0,0,0,0,0,0,0,0
1849,129,1016,-16310,3724,0,0,0,0,0,0,0,0,0,0,0
1850,129,1122,-16440,1996,0,0,0,0,0,0,0,0,0,0,0
1851,129,388,-16382,-1116,0,0,0,0,0,0,0,0,0,0,0
1852,129,196,-16332,-304,0,0,0,0,0,0,0,0,0,0,0
1853,129,-16,-16264,90,0,0,0,0,0,0,0,0,0,0,0
1854,129,204,-16288,364,0,0,0,0,0,0,0,0,0,0,0
1855,129,2,-16238,794,0,0,0,0,0,0,0,0,0,0,0
1856,129,1882,-16440,2946,0,0,0,0,0,0,0,0,0,0,0
1857,129,-732,-16056,996,0,0,0,0,0,0,0,0,0,0,0
1858,129,-114,-16176,1528,0,0,0,0,0,0,0,0,0,0,0
1859,129,-236,-16218,1196,0,0,0,0,0,0,0,0,0,0,0
1860,129,-1312,-16000,-282,0,0,0,0,0,0,0,0,0,0,0
1861,129,1254,-16430,3546,0,0,0,0,0,0,0,0,0,0,0
1862,129,12,-16276,906,0,0,0,0,0,0,0,0,0,0,0
1863,129,238,-16314,1236,0,0,0,0,0,0,0,0,0,0,0
1864,129,-788,-15978,1148,0,0,0,0,0,0,0,0,0,0,0
1865,129,-5068,-13386,-418,0,0,0,0,0,0,0,0,0,0,0
1866,129,5192,-16554,15992,0,0,0,0,0,0,0,0,0,0,0
1867,129,-1708,-15476,-3396,0,0,0,0,0,0,0,0,0,0,0
1868,129,-1316,-15922,-6016,0,0,0,0,0,0,0,0,0,0,0
1869,129,2444,-17170,-7984,0,0,0,0,0,0,0,0,0,0,0
1870,129,532,-16240,-3186,0,0,0,0,0,0,0,0,0,0,0
1871,129,224,-16296,-614,0,0,0,0,0,0,0,0,0,0,0
1872,129,-124,-16156,-2066,0,0,0,0,0,0,0,0,0,0,0
1873,129,-216,-16092,-1982,0,0,0,0,0,0,0,0,0,0,0
1874,129,-164,-16194,-2284,0,0,0,0,0,0,0,0,0,0,0
1875,129,-506,-16090,-2086,0,0,0,0,0,0,0,0,0,0,0
1876,129,-146,-16272,-470,0,0,0,0,0,0,0,0,0,0,0
1877,129,-564,-16034,1148,0,0,0,0,0,0,0,0,0,0,0
1878,129,4134,-17264,3144,0,0,0,0,0,0,0,0,0,0,0
1879,129,6188,-18264,-5714,0,0,0,0,0,0,0,0,0,0,0
1880,129,-760,-16030,-294,0,0,0,0,0,0,0,0,0,0,0
1881,129,298,-16408,-2074,0,0,0,0,0,0,0,0,0,0,0
1882,129,210,-16368,-1758,0,0,0,0,0,0,0,0,0,0,0
1883,129,-350,-16208,-1422,0,0,0,0,0,0,0,0,0,0,0
1884,129,154,-16374,950,0,0,0,0,0,0,0,0,0,0,0
1885,129,-1702,-15812,2366,0,0,0,0,0,0,0,0,0,0,0
1886,129,162,-16274,3734,0,0,0,0,0,0,0,0,0,0,0
1887,129,-314,-16198,2794,0,0,0,0,0,0,0,0,0,0,0
1888,129,-496,-16196,612,0,0,0,0,0,0,0,0,0,0,0
1889,129,-460,-16192,360,0,0,0,0,0,0,0,0,0,0,0
1890,129,-470,-16172,-400,0,0,0,0,0,0,0,0,0,0,0
1891,129,-350,-16280,-444,0,0,0,0,0,0,0,0,0,0,0
1892,129,-192,-16280,-1224,0,0,0,0,0,0,0,0,0,0,0
1893,129,-148,-16346,-658,0,0,0,0,0,0,0,0,0,0,0
1894,129,-380,-16314,-796,0,0,0,0,0,0,0,0,0,0,0
1895,129,-330,-16224,-622,0,0,0,0,0,0,0,0,0,0,0
1896,129,-302,-16258,-682,0,0,0,0,0,0,0,0,0,0,0
1897,129,-254,-16226,-530,0,0,0,0,0,0,0,0,0,0,0
1898,129,-284,-16300,264,0,0,0,0,0,0,0,0,0,0,0
1899,129,-222,-16250,356,0,0,0,0,0,0,0,0,0,0,0
1900,129,40,-16356,-190,0,0,0,0,0,0,0,0,0,0,0
1901,129,392,-16240,4502,0,0,0,0,0,0,0,0,0,0,0
1902,129,382,-16504,-2530,0,0,0,0,0,0,0,0,0,0,0
1903,129,-176,-16218,-638,0,0,0,0,0,0,0,0,0,0,0
1904,129,-258,-16302,268,0,0,0,0,0,0,0,0,0,0,0
1905,129,98,-16460,-634,0,0,0,0,0,0,0,0,0,0,0
1906,129,-386,-16286,-380,0,0,0,0,0,0,0,0,0,0,0
1907,129,-76,-16336,506,0,0,0,0,0,0,0,0,0,0,0
1908,129,-376,-16146,254,0,0,0,0,0,0,0,0,0,0,0
1909,129,-294,-16318,-442,0,0,0,0,0,0,0,0,0,0,0
1910,129,-330,-16302,-28,0,0,0,0,0,0,0,0,0,0,0
1911,129,-300,-16236,-118,0,0,0,0,0,0,0,0,0,0,0
1912,129,-272,-16250,-94,0,0,0,0,0,0,0,0,0,0,0
1913,129,-206,-16324,26,0,0,0,0,0,0,0,0,0,0,0
1914,129,-236,-16242,-16,0,0,0,0,0,0,0,0,0,0,0
1915,129,-262,-16216,-48,0,0,0,0,0,0,0,0,0,0,0
1916,129,-288,-16280,-124,0,0,0,0,0,0,0,0,0,0,0
1917,129,-230,-16286,-170,0,0,0,0,0,0,0,0,0,0,0
1918,129,-212,-16286,-282,0,0,0,0,0,0,0,0,0,0,0
1919,129,-204,-16340,14,0,0,0,0,0,0,0,0,0,0,0
1920,129,-336,-16220,24,0,0,0,0,0,0,0,0,0,0,0
1921,129,-248,-16274,-166,0,0,0,0,0,0,0,0,0,0,0
1922,129,-236,-16346,-166,0,0,0,0,0,0,0,0,0,0,0
1923,129,-202,-16282,-48,0,0,0,0,0,0,0,0,0,0,0
1924,129,-192,-16260,-114,0,0,0,0,0,0,0,0,0,0,0
1925,129,-268,-16288,-12,0,0,0,0,0,0,0,0,0,0,0
1926,129,-276,-16264,-204,0,0,0,0,0,0,0,0,0,0,0
1927,129,-216,-16344,-218,0,0,0,0,0,0,0,0,0,0,0
1928,129,-256,-16252,-84,0,0,0,0,0,0,0,0,0,0,0
1929,129,-136,-16332,-180,0,0,0,0,0,0,0,0,0,0,0
1930,129,-216,-16328,-62,0,0,0,0,0,0,0,0,0,0,0
1931,129,-258,-16226,-92,0,0,0,0,0,0,0,0,0,0,0
1932,129,-210,-16238,-148,0,0,0,0,0,0,0,0,0,0,0
1933,129,-178,-16314,-6,0,0,0,0,0,0,0,0,0,0,0
1934,129,-150,-16248,-134,0,0,0,0,0,0,0,0,0,0,0
1935,129,-296,-16256,2,0,0,0,0,0,0,0,0,0,0,0
1936,129,-128,-16216,-144,0,0,0,0,0,0,0,0,0,0,0
1937,129,-204,-16238,0,0,0,0,0,0,0,0,0,0,0,0
1938,129,-266,-16318,-66,0,0,0,0,0,0,0,0,0,0,0
1939,129,-202,-16348,-328,0,0,0,0,0,0,0,0,0,0,0
1940,129,-230,-16274,-46,0,0,0,0,0,0,0,0,0,0,0
1941,129,-214,-16330,2,0,0,0,0,0,0,0,0,0,0,0
1942,129,-134,-16344,-220,0,0,0,0,0,0,0,0,0,0,0
1943,129,-206,-16296,-4,0,0,0,0,0,0,0,0,0,0,0
1944,129,-172,-16228,180,0,0,0,0,0,0,0,0,0,0,0
1945,129,-168,-16274,26,0,0,0,0,0,0,0,0,0,0,0
1946,129,-210,-16340,-194,0,0,0,0,0,0,0,0,0,0,0
1947,129,-166,-16200,-90,0,0,0,0,0,0,0,0,0,0,0
1948,129,-180,-16216,10,0,0,0,0,0,0,0,0,0,0,0
1949,129,-40,-16290,64,0,0,0,0,0,0,0,0,0,0,0
1950,129,-108,-16284,-126,0,0,0,0,0,0,0,0,0,0,0
1951,129,-312,-16248,-176,0,0,0,0,0,0,0,0,0,0,0
1952,129,-254,-16186,-122,0,0,0,0,0,0,0,0,0,0,0
1953,129,28,-16320,150,0,0,0,0,0,0,0,0,0,0,0
1954,129,-44,-16346,124,0,0,0,0,0,0,0,0,0,0,0
1955,129,-296,-16284,-692,0,0,0,0,0,0,0,0,0,0,0
1956,129,-196,-16310,46,0,0,0,0,0,0,0,0,0,0,0
1957,129,-54,-16330,-200,0,0,0,0,0,0,0,0,0,0,0
1958,129,-80,-16262,78,0,0,0,0,0,0,0,0,0,0,0
1959,129,-120,-16248,-130,0,0,0,0,0,0,0,0,0,0,0
1960,129,-138,-16266,-122,0,0,0,0,0,0,0,0,0,0,0
1961,129,-192,-16246,0,0,0,0,0,0,0,0,0,0,0,0
1962,129,-210,-16242,32,0,0,0,0,0,0,0,0,0,0,0
1963,129,-184,-16342,-142,0,0,0,0,0,0,0,0,0,0,0
1964,129,-162,-16294,-94,0,0,0,0,0,0,0,0,0,0,0
1965,129,-154,-16324,42,0,0,0,0,0,0,0,0,0,0,0
1966,129,-198,-16272,-118,0,0,0,0,0,0,0,0,0,0,0
1967,129,-266,-16250,-98,0,0,0,0,0,0,0,0,0,0,0
1968,129,-168,-16224,-30,0,0,0,0,0,0,0,0,0,0,0
1969,129,-196,-16322,184,0,0,0,0,0,0,0,0,0,0,0
1970,129,-270,-16276,-66,0,0,0,0,0,0,0,0,0,0,0
1971,129,-186,-16232,-212,0,0,0,0,0,0,0,0,0,0,0
1972,129,-294,-16248,-246,0,0,0,0,0,0,0,0,0,0,0
1973,129,-154,-16312,-58,0,0,0,0,0,0,0,0,0,0,0
1974,129,-174,-16296,-46,0,0,0,0,0,0,0,0,0,0,0
1975,129,-248,-16284,-32,0,0,0,0,0,0,0,0,0,0,0
1976,129,-228,-16174,-146,0,0,0,0,0,0,0,0,0,0,0
1977,129,-204,-16252,-114,0,0,0,0,0,0,0,0,0,0,0
1978,129,-272,-16216,58,0,0,0,0,0,0,0,0,0,0,0
1979,129,-230,-16324,-116,0,0,0,0,0,0,0,0,0,0,0
1980,129,-198,-16196,-100,0,0,0,0,0,0,0,0,0,0,0
1981,129,-150,-16270,90,0,0,0,0,0,0,0,0,0,0,0
1982,129,-164,-16302,-126,0,0,0,0,0,0,0,0,0,0,0
1983,129,-190,-16378,-112,0,0,0,0,0,0,0,0,0,0,0
1984,129,-146,-16322,-8,0,0,0,0,0,0,0,0,0,0,0
1985,129,-128,-16216,-118,0,0,0,0,0,0,0,0,0,0,0
1986,129,-206,-16252,-172,0,0,0,0,0,0,0,0,0,0,0
1987,129,-238,-16262,-104,0,0,0,0,0,0,0,0,0,0,0
1988,129,-206,-16262,46,0,0,0,0,0,0,0,0,0,0,0
1989,129,-192,-16208,-36,0,0,0,0,0,0,0,0,0,0,0
1990,129,-40,-16254,-184,0,0,0,0,0,0,0,0,0,0,0
1991,129,-250,-16210,-6,0,0,0,0,0,0,0,0,0,0,0
1992,129,-204,-16242,-132,0,0,0,0,0,0,0,0,0,0,0
1993,129,-114,-16212,34,0,0,0,0,0,0,0,0,0,0,0
1994,129,-226,-16182,-116,0,0,0,0,0,0,0,0,0,0,0
1995,129,-130,-16242,0,0,0,0,0,0,0,0,0,0,0,0
1996,129,-120,-16242,2,0,0,0,0,0,0,0,0,0,0,0
1997,129,-234,-16264,-148,0,0,0,0,0,0,0,0,0,0,0
1998,129,-202,-16342,-144,0,0,0,0,0,0,0,0,0,0,0
1999,129,-162,-16266,22,0,0,0,0,0,0,0,0,0,0,0
2000,129,-172,-16246,-132,0,0,0,0,0,0,0,0,0,0,0
2001,129,-254,-16292,-102,0,0,0,0,0,0,0,0,0,0,0
2002,129,-130,-16294,32,0,0,0,0,0,0,0,0,0,0,0
2003,129,-130,-16280,-92,0,0,0,0,0,0,0,0,0,0,0
2004,129,-138,-16318,-8,0,0,0,0,0,0,0,0,0,0,0
2005,129,-200,-16292,-264,0,0,0,0,0,0,0,0,0,0,0
2006,129,-114,-16266,60,0,0,0,0,0,0,0,0,0,0,0
2007,129,-178,-16232,-40,0,0,0,0,0,0,0,0,0,0,0
2008,129,-148,-16328,-158,0,0,0,0,0,0,0,0,0,0,0
2009,129,-122,-16272,124,0,0,0,0,0,0,0,0,0,0,0
2010,129,-126,-16290,20,0,0,0,0,0,0,0,0,0,0,0
2011,129,-244,-16264,-194,0,0,0,0,0,0,0,0,0,0,0
2012,129,-182,-16332,-94,0,0,0,0,0,0,0,0,0,0,0
2013,129,-90,-16214,218,0,0,0,0,0,0,0,0,0,0,0
2014,129,-78,-16266,34,0,0,0,0,0,0,0,0,0,0,0
2015,129,-280,-16302,-198,0,0,0,0,0,0,0,0,0,0,0
2016,129,-228,-16334,-112,0,0,0,0,0,0,0,0,0,0,0
2017,129,-96,-16314,30,0,0,0,0,0,0,0,0,0,0,0
2018,129,-138,-16292,10,0,0,0,0,0,0,0,0,0,0,0
2019,129,-112,-16286,-222,0,0,0,0,0,0,0,0,0,0,0
2020,129,-176,-16296,-56,0,0,0,0,0,0,0,0,0,0,0
2021,129,-170,-16258,-54,0,0,0,0,0,0,0,0,0,0,0
2022,129,-166,-16246,-8,0,0,0,0,0,0,0,0,0,0,0
2023,129,-62,-16288,-14,0,0,0,0,0,0,0,0,0,0,0
2024,129,-176,-16232,22,0,0,0,0,0,0,0,0,0,0,0
2025,129,-222,-16216,-198,0,0,0,0,0,0,0,0,0,0,0
2026,129,-174,-16186,-156,0,0,0,0,0,0,0,0,0,0,0
2027,129,-172,-16226,-100,0,0,0,0,0,0,0,0,0,0,0
2028,129,-114,-16142,118,0,0,0,0,0,0,0,0,0,0,0
2029,129,-106,-16196,26,0,0,0,0,0,0,0,0,0,0,0
2030,129,-142,-16278,24,0,0,0,0,0,0,0,0,0,0,0
2031,129,-176,-16250,-308,0,0,0,0,0,0,0,0,0,0,0
2032,129,-138,-16232,-18,0,0,0,0,0,0,0,0,0,0,0
2033,129,-190,-16264,26,0,0,0,0,0,0,0,0,0,0,0
2034,129,-132,-16348,-60,0,0,0,0,0,0,0,0,0,0,0
2035,129,-178,-16276,-180,0,0,0,0,0,0,0,0,0,0,0
2036,129,-94,-16248,-62,0,0,0,0,0,0,0,0,0,0,0
2037,129,-190,-16190,-10,0,0,0,0,0,0,0,0,0,0,0
2038,129,-182,-16206,44,0,0,0,0,0,0,0,0,0,0,0
2039,129,-122,-16316,-26,0,0,0,0,0,0,0,0,0,0,0
2040,129,-212,-16228,2,0,0,0,0,0,0,0,0,0,0,0
2041,129,-60,-16334,2,0,0,0,0,0,0,0,0,0,0,0
2042,129,-166,-16316,-164,0,0,0,0,0,0,0,0,0,0,0
2043,129,-160,-16332,-128,0,0,0,0,0,0,0,0,0,0,0
2044,129,-108,-16268,-124,0,0,0,0,0,0,0,0,0,0,0
2045,129,-220,-16300,-192,0,0,0,0,0,0,0,0,0,0,0
2046,129,-136,-16244,200,0,0,0,0,0,0,0,0,0,0,0
2047,129,-168,-16258,-40,0,0,0,0,0,0,0,0,0,0,0
2048,129,-144,-16246,-154,0,0,0,0,0,0,0,0,0,0,0
2049,129,-126,-16274,56,0,0,0,0,0,0,0,0,0,0,0
2050,129,-274,-16226,-78,0,0,0,0,0,0,0,0,0,0,0
2051,129,-148,-16258,-134,0,0,0,0,0,0,0,0,0,0,0
2052,129,-204,-16316,56,0,0,0,0,0,0,0,0,0,0,0
2053,129,-178,-16254,-106,0,0,0,0,0,0,0,0,0,0,0
2054,129,-240,-16320,28,0,0,0,0,0,0,0,0,0,0,0
2055,129,-128,-16256,-108,0,0,0,0,0,0,0,0,0,0,0
2056,129,-206,-16226,-8,0,0,0,0,0,0,0,0,0,0,0
2057,129,-184,-16290,28,0,0,0,0,0,0,0,0,0,0,0
2058,129,-110,-16296,-134,0,0,0,0,0,0,0,0,0,0,0
2059,129,-176,-16198,-106,0,0,0,0,0,0,0,0,0,0,0
2060,129,-162,-16252,-264,0,0,0,0,0,0,0,0,0,0,0
2061,129,-170,-16202,-74,0,0,0,0,0,0,0,0,0,0,0
2062,129,-102,-16280,8,0,0,0,0,0,0,0,0,0,0,0
2063,129,-214,-16248,-62,0,0,0,0,0,0,0,0,0,0,0
2064,129,-142,-16356,-30,0,0,0,0,0,0,0,0,0,0,0
2065,129,-180,-16268,-140,0,0,0,0,0,0,0,0,0,0,0
2066,129,-128,-16276,-48,0,0,0,0,0,0,0,0,0,0,0
2067,129,-190,-16268,-60,0,0,0,0,0,0,0,0,0,0,0
2068,129,-228,-16194,-8,0,0,0,0,0,0,0,0,0,0,0
2069,129,-148,-16216,-70,0,0,0,0,0,0,0,0,0,0,0
2070,129,-84,-16232,-28,0,0,0,0,0,0,0,0,0,0,0
2071,129,-162,-16314,-86,0,0,0,0,0,0,0,0,0,0,0
2072,129,-154,-16304,36,0,0,0,0,0,0,0,0,0,0,0
2073,129,-200,-16206,-124,0,0,0,0,0,0,0,0,0,0,0
2074,129,-264,-16276,32,0,0,0,0,0,0,0,0,0,0,0
2075,129,-170,-16306,-8,0,0,0,0,0,0,0,0,0,0,0
2076,129,-142,-16256,136,0,0,0,0,0,0,0,0,0,0,0
2077,129,-114,-16242,-14,0,0,0,0,0,0,0,0,0,0,0
2078,129,-192,-16248,98,0,0,0,0,0,0,0,0,0,0,0
2079,129,-226,-16256,-96,0,0,0,0,0,0,0,0,0,0,0
2080,129,28,-16310,-36,0,0,0,0,0,0,0,0,0,0,0
2081,129,-118,-16280,-14,0,0,0,0,0,0,0,0,0,0,0
2082,129,-120,-16298,-152,0,0,0,0,0,0,0,0,0,0,0
2083,129,-186,-16210,30,0,0,0,0,0,0,0,0,0,0,0
2084,129,-116,-16256,78,0,0,0,0,0,0,0,0,0,0,0
2085,129,-250,-16272,-14,0,0,0,0,0,0,0,0,0,0,0
2086,129,-90,-16330,90,0,0,0,0,0,0,0,0,0,0,0
2087,129,-72,-16270,74,0,0,0,0,0,0,0,0,0,0,0
2088,129,-82,-16256,-124,0,0,0,0,0,0,0,0,0,0,0
2089,129,-250,-16290,10,0,0,0,0,0,0,0,0,0,0,0
2090,129,-126,-16302,70,0,0,0,0,0,0,0,0,0,0,0
2091,129,-122,-16248,12,0,0,0,0,0,0,0,0,0,0,0
2092,129,-118,-16318,-70,0,0,0,0,0,0,0,0,0,0,0
2093,129,-144,-16278,-92,0,0,0,0,0,0,0,0,0,0,0
2094,129,-48,-16304,-104,0,0,0,0,0,0,0,0,0,0,0
2095,129,-390,-16240,698,0,0,0,0,0,0,0,0,0,0,0
2096,129,114,-16376,-286,0,0,0,0,0,0,0,0,0,0,0
2097,129,-156,-16256,-298,0,0,0,0,0,0,0,0,0,0,0
2098,129,-142,-16300,116,0,0,0,0,0,0,0,0,0,0,0
2099,129,-108,-16306,-396,0,0,0,0,0,0,0,0,0,0,0
2100,129,-320,-16326,-202,0,0,0,0,0,0,0,0,0,0,0
2101,129,-212,-16238,-238,0,0,0,0,0,0,0,0,0,0,0
2102,129,-432,-16202,-126,0,0,0,0,0,0,0,0,0,0,0
2103,129,-152,-16232,-136,0,0,0,0,0,0,0,0,0,0,0
2104,129,-192,-16280,-54,0,0,0,0,0,0,0,0,0,0,0
2105,129,-150,-16252,-30,0,0,0,0,0,0,0,0,0,0,0
2106,129,-330,-16188,-82,0,0,0,0,0,0,0,0,0,0,0
2107,129,-238,-16248,-166,0,0,0,0,0,0,0,0,0,0,0
2108,129,-174,-16278,-78,0,0,0,0,0,0,0,0,0,0,0
2109,129,-210,-16198,24,0,0,0,0,0,0,0,0,0,0,0
2110,129,-188,-16328,-4,0,0,0,0,0,0,0,0,0,0,0
2111,129,-208,-16162,-108,0,0,0,0,0,0,0,0,0,0,0
2112,129,-134,-16390,-26,0,0,0,0,0,0,0,0,0,0,0
2113,129,-168,-16300,-52,0,0,0,0,0,0,0,0,0,0,0
2114,129,-180,-16324,-26,0,0,0,0,0,0,0,0,0,0,0
2115,129,-186,-16262,0,0,0,0,0,0,0,0,0,0,0,0
2116,129,-186,-16228,4,0,0,0,0,0,0,0,0,0,0,0
2117,129,-198,-16356,144,0,0,0,0,0,0,0,0,0,0,0
2118,129,-230,-16214,-78,0,0,0,0,0,0,0,0,0,0,0
2119,129,-156,-16278,-150,0,0,0,0,0,0,0,0,0,0,0
2120,129,-120,-16286,14,0,0,0,0,0,0,0,0,0,0,0
2121,129,-274,-16270,126,0,0,0,0,0,0,0,0,0,0,0
2122,129,-268,-16272,-32,0,0,0,0,0,0,0,0,0,0,0
2123,129,-176,-16284,38,0,0,0,0,0,0,0,0,0,0,0
2124,129,-182,-16280,-62,0,0,0,0,0,0,0,0,0,0,0
2125,129,-216,-16216,26,0,0,0,0,0,0,0,0,0,0,0
2126,129,-204,-16266,-20,0,0,0,0,0,0,0,0,0,0,0
2127,129,-244,-16216,18,0,0,0,0,0,0,0,0,0,0,0
2128,129,-228,-16316,-80,0,0,0,0,0,0,0,0,0,0,0
2129,129,-180,-16344,170,0,0,0,0,0,0,0,0,0,0,0
2130,129,-238,-16238,-42,0,0,0,0,0,0,0,0,0,0,0
2131,129,-248,-16280,152,0,0,0,0,0,0,0,0,0,0,0
2132,129,-164,-16286,60,0,0,0,0,0,0,0,0,0,0,0
2133,129,-234,-16296,-74,0,0,0,0,0,0,0,0,0,0,0
2134,129,-244,-16230,30,0,0,0,0,0,0,0,0,0,0,0
2135,129,-192,-16336,110,0,0,0,0,0,0,0,0,0,0,0
2136,129,-232,-16180,232,0,0,0,0,0,0,0,0,0,0,0
2137,129,-192,-16332,132,0,0,0,0,0,0,0,0,0,0,0
2138,129,-106,-16390,-88,0,0,0,0,0,0,0,0,0,0,0
2139,129,-86,-16268,448,0,0,0,0,0,0,0,0,0,0,0
2140,129,-94,-16234,190,0,0,0,0,0,0,0,0,0,0,0
2141,129,-164,-16312,218,0,0,0,0,0,0,0,0,0,0,0
2142,129,-196,-16270,442,0,0,0,0,0,0,0,0,0,0,0
2143,129,-92,-16260,152,0,0,0,0,0,0,0,0,0,0,0
2144,129,-194,-16328,254,0,0,0,0,0,0,0,0,0,0,0
2145,129,534,-16406,200,0,0,0,0,0,0,0,0,0,0,0
2146,129,238,-16334,578,0,0,0,0,0,0,0,0,0,0,0
2147,129,-380,-16202,120,0,0,0,0,0,0,0,0,0,0,0
2148,129,-214,-16300,358,0,0,0,0,0,0,0,0,0,0,0
2149,129,-216,-16208,294,0,0,0,0,0,0,0,0,0,0,0
2150,129,-236,-16230,302,0,0,0,0,0,0,0,0,0,0,0
2151,129,-280,-16274,224,0,0,0,0,0,0,0,0,0,0,0
2152,129,-292,-16274,542,0,0,0,0,0,0,0,0,0,0,0
2153,129,-260,-16256,528,0,0,0,0,0,0,0,0,0,0,0
2154,129,-166,-16158,454,0,0,0,0,0,0,0,0,0,0,0
2155,129,-262,-16312,382,0,0,0,0,0,0,0,0,0,0,0
2156,129,-200,-16316,646,0,0,0,0,0,0,0,0,0,0,0
2157,129,-248,-16224,406,0,0,0,0,0,0,0,0,0,0,0
2158,129,-310,-16186,556,0,0,0,0,0,0,0,0,0,0,0
2159,129,-292,-16288,426,0,0,0,0,0,0,0,0,0,0,0
2160,129,-264,-16294,500,0,0,0,0,0,0,0,0,0,0,0
2161,129,-236,-16250,284,0,0,0,0,0,0,0,0,0,0,0
2162,129,-348,-16258,446,0,0,0,0,0,0,0,0,0,0,0
2163,129,-262,-16222,826,0,0,0,0,0,0,0,0,0,0,0
2164,129,-282,-16204,738,0,0,0,0,0,0,0,0,0,0,0
2165,129,-288,-16340,742,0,0,0,0,0,0,0,0,0,0,0
2166,129,-302,-16336,788,0,0,0,0,0,0,0,0,0,0,0
2167,129,-350,-16220,744,0,0,0,0,0,0,0,0,0,0,0
2168,129,-306,-16226,798,0,0,0,0,0,0,0,0,0,0,0
2169,129,-354,-16278,664,0,0,0,0,0,0,0,0,0,0,0
2170,129,-328,-16236,816,0,0,0,0,0,0,0,0,0,0,0
2171,129,-170,-16176,960,0,0,0,0,0,0,0,0,0,0,0
2172,129,-314,-16174,900,0,0,0,0,0,0,0,0,0,0,0
2173,129,-256,-16222,946,0,0,0,0,0,0,0,0,0,0,0
2174,129,-276,-16220,906,0,0,0,0,0,0,0,0,0,0,0
2175,129,-188,-16238,904,0,0,0,0,0,0,0,0,0,0,0
2176,129,-208,-16164,786,0,0,0,0,0,0,0,0,0,0,0
2177,129,-190,-16192,868,0,0,0,0,0,0,0,0,0,0,0
2178,129,-332,-16160,780,0,0,0,0,0,0,0,0,0,0,0
2179,129,-240,-16242,780,0,0,0,0,0,0,0,0,0,0,0
2180,129,-260,-16232,956,0,0,0,0,0,0,0,0,0,0,0
2181,129,-184,-16280,972,0,0,0,0,0,0,0,0,0,0,0
2182,129,-314,-16312,902,0,0,0,0,0,0,0,0,0,0,0
2183,129,-180,-16260,752,0,0,0,0,0,0,0,0,0,0,0
2184,129,-254,-16232,986,0,0,0,0,0,0,0,0,0,0,0
2185,129,-180,-16228,848,0,0,0,0,0,0,0,0,0,0,0
2186,129,-274,-16238,870,0,0,0,0,0,0,0,0,0,0,0
2187,129,-186,-16278,850,0,0,0,0,0,0,0,0,0,0,0
2188,129,-214,-16214,978,0,0,0,0,0,0,0,0,0,0,0
2189,129,-124,-16242,942,0,0,0,0,0,0,0,0,0,0,0
2190,129,-230,-16258,880,0,0,0,0,0,0,0,0,0,0,0
2191,129,-204,-16232,684,0,0,0,0,0,0,0,0,0,0,0
2192,129,-182,-16196,896,0,0,0,0,0,0,0,0,0,0,0
2193,129,-216,-16188,894,0,0,0,0,0,0,0,0,0,0,0
2194,129,-328,-16274,722,0,0,0,0,0,0,0,0,0,0,0
2195,129,-266,-16272,934,0,0,0,0,0,0,0,0,0,0,0
2196,129,-210,-16148,976,0,0,0,0,0,0,0,0,0,0,0
2197,129,-178,-16244,882,0,0,0,0,0,0,0,0,0,0,0
2198,129,-268,-16240,878,0,0,0,0,0,0,0,0,0,0,0
2199,129,-240,-16162,844,0,0,0,0,0,0,0,0,0,0,0
2200,129,-168,-16178,920,0,0,0,0,0,0,0,0,0,0,0
2201,129,-338,-16250,838,0,0,0,0,0,0,0,0,0,0,0
2202,129,-196,-16198,932,0,0,0,0,0,0,0,0,0,0,0
2203,129,-116,-16294,946,0,0,0,0,0,0,0,0,0,0,0
2204,129,-240,-16244,880,0,0,0,0,0,0,0,0,0,0,0
2205,129,-324,-16328,638,0,0,0,0,0,0,0,0,0,0,0
2206,129,-202,-16210,974,0,0,0,0,0,0,0,0,0,0,0
2207,129,-224,-16256,1056,0,0,0,0,0,0,0,0,0,0,0
2208,129,-230,-16150,998,0,0,0,0,0,0,0,0,0,0,0
2209,129,-228,-16216,704,0,0,0,0,0,0,0,0,0,0,0
2210,129,-242,-16240,812,0,0,0,0,0,0,0,0,0,0,0
2211,129,-204,-16264,920,0,0,0,0,0,0,0,0,0,0,0
2212,129,-286,-16242,932,0,0,0,0,0,0,0,0,0,0,0
2213,129,-186,-16258,1018,0,0,0,0,0,0,0,0,0,0,0
2214,129,-214,-16210,894,0,0,0,0,0,0,0,0,0,0,0
2215,129,-266,-16234,794,0,0,0,0,0,0,0,0,0,0,0
2216,129,-192,-16282,820,0,0,0,0,0,0,0,0,0,0,0
2217,129,-148,-16290,722,0,0,0,0,0,0,0,0,0,0,0
2218,129,-54,-16304,1058,0,0,0,0,0,0,0,0,0,0,0
2219,129,-156,-16352,686,0,0,0,0,0,0,0,0,0,0,0
2220,129,-220,-16244,850,0,0,0,0,0,0,0,0,0,0,0
2221,129,-284,-16216,612,0,0,0,0,0,0,0,0,0,0,0
2222,129,-268,-16268,918,0,0,0,0,0,0,0,0,0,0,0
2223,129,-178,-16212,964,0,0,0,0,0,0,0,0,0,0,0
2224,129,-306,-16288,1008,0,0,0,0,0,0,0,0,0,0,0
2225,129,-324,-16270,646,0,0,0,0,0,0,0,0,0,0,0
2226,129,-190,-16242,946,0,0,0,0,0,0,0,0,0,0,0
2227,129,-158,-16272,956,0,0,0,0,0,0,0,0,0,0,0
2228,129,-224,-16324,828,0,0,0,0,0,0,0,0,0,0,0
2229,129,-244,-16208,764,0,0,0,0,0,0,0,0,0,0,0
2230,129,-180,-16268,942,0,0,0,0,0,0,0,0,0,0,0
2231,129,-246,-16234,972,0,0,0,0,0,0,0,0,0,0,0
2232,129,-280,-16196,850,0,0,0,0,0,0,0,0,0,0,0
2233,129,-210,-16232,852,0,0,0,0,0,0,0,0,0,0,0
2234,129,-156,-16290,964,0,0,0,0,0,0,0,0,0,0,0
2235,129,-330,-16190,946,0,0,0,0,0,0,0,0,0,0,0
2236,129,-228,-16128,840,0,0,0,0,0,0,0,0,0,0,0
2237,129,-280,-16238,868,0,0,0,0,0,0,0,0,0,0,0
2238,129,-306,-16170,842,0,0,0,0,0,0,0,0,0,0,0
2239,129,-218,-16268,722,0,0,0,0,0,0,0,0,0,0,0
2240,129,-210,-16280,1044,0,0,0,0,0,0,0,0,0,0,0
2241,129,-278,-16294,906,0,0,0,0,0,0,0,0,0,0,0
2242,129,-312,-16272,766,0,0,0,0,0,0,0,0,0,0,0
2243,129,-238,-16274,920,0,0,0,0,0,0,0,0,0,0,0
2244,129,-208,-16224,1062,0,0,0,0,0,0,0,0,0,0,0
2245,129,-166,-16298,1012,0,0,0,0,0,0,0,0,0,0,0
2246,129,-200,-16274,1110,0,0,0,0,0,0,0,0,0,0,0
2247,129,-316,-16274,936,0,0,0,0,0,0,0,0,0,0,0
2248,129,-274,-16268,940,0,0,0,0,0,0,0,0,0,0,0
2249,129,-278,-16242,902,0,0,0,0,0,0,0,0,0,0,0
2250,129,-224,-16272,978,0,0,0,0,0,0,0,0,0,0,0
2251,129,-230,-16254,1126,0,0,0,0,0,0,0,0,0,0,0
2252,129,-256,-16216,856,0,0,0,0,0,0,0,0,0,0,0
2253,129,-258,-16204,998,0,0,0,0,0,0,0,0,0,0,0
2254,129,-238,-16260,1214,0,0,0,0,0,0,0,0,0,0,0
2255,129,-128,-16256,1106,0,0,0,0,0,0,0,0,0,0,0
2256,129,-252,-16242,890,0,0,0,0,0,0,0,0,0,0,0
2257,129,-206,-16302,946,0,0,0,0,0,0,0,0,0,0,0
2258,129,-220,-16242,1210,0,0,0,0,0,0,0,0,0,0,0
2259,129,-166,-16280,874,0,0,0,0,0,0,0,0,0,0,0
2260,129,-204,-16272,1108,0,0,0,0,0,0,0,0,0,0,0
2261,129,-288,-16306,1164,0,0,0,0,0,0,0,0,0,0,0
2262,129,-230,-16250,1146,0,0,0,0,0,0,0,0,0,0,0
2263,129,-238,-16228,964,0,0,0,0,0,0,0,0,0,0,0
2264,129,-360,-16146,1046,0,0,0,0,0,0,0,0,0,0,0
2265,129,-198,-16168,956,0,0,0,0,0,0,0,0,0,0,0
2266,129,-348,-16226,1180,0,0,0,0,0,0,0,0,0,0,0
2267,129,-202,-16258,1148,0,0,0,0,0,0,0,0,0,0,0
2268,129,-284,-16266,1106,0,0,0,0,0,0,0,0,0,0,0
2269,129,-202,-16170,968,0,0,0,0,0,0,0,0,0,0,0
2270,129,-248,-16220,1286,0,0,0,0,0,0,0,0,0,0,0
2271,129,-272,-16190,1080,0,0,0,0,0,0,0,0,0,0,0
2272,129,-232,-16210,1158,0,0,0,0,0,0,0,0,0,0,0
2273,129,-2,-16238,772,0,0,0,0,0,0,0,0,0,0,0
2274,129,-124,-16260,1306,0,0,0,0,0,0,0,0,0,0,0
2275,129,-128,-16174,1154,0,0,0,0,0,0,0,0,0,0,0
2276,129,-238,-16206,1206,0,0,0,0,0,0,0,0,0,0,0
2277,129,-292,-16224,1228,0,0,0,0,0,0,0,0,0,0,0
2278,129,-202,-16148,1284,0,0,0,0,0,0,0,0,0,0,0
2279,129,-220,-16200,1432,0,0,0,0,0,0,0,0,0,0,0
2280,129,-302,-16240,1222,0,0,0,0,0,0,0,0,0,0,0
2281,129,-254,-16210,1368,0,0,0,0,0,0,0,0,0,0,0
2282,129,-260,-16226,1322,0,0,0,0,0,0,0,0,0,0,0
2283,129,-216,-16230,1312,0,0,0,0,0,0,0,0,0,0,0
2284,129,-294,-16284,1326,0,0,0,0,0,0,0,0,0,0,0
2285,129,-262,-16224,1324,0,0,0,0,0,0,0,0,0,0,0
2286,129,-310,-16166,1276,0,0,0,0,0,0,0,0,0,0,0
2287,129,-222,-16148,1372,0,0,0,0,0,0,0,0,0,0,0
2288,129,-308,-16188,1216,0,0,0,0,0,0,0,0,0,0,0
2289,129,-288,-16224,1426,0,0,0,0,0,0,0,0,0,0,0
2290,129,-260,-16214,1232,0,0,0,0,0,0,0,0,0,0,0
2291,129,-262,-16196,1242,0,0,0,0,0,0,0,0,0,0,0
2292,129,-198,-16244,1342,0,0,0,0,0,0,0,0,0,0,0
2293,129,-276,-16214,1260,0,0,0,0,0,0,0,0,0,0,0
2294,129,-228,-16220,1298,0,0,0,0,0,0,0,0,0,0,0
2295,129,-254,-16252,1274,0,0,0,0,0,0,0,0,0,0,0
2296,129,-192,-16246,1478,0,0,0,0,0,0,0,0,0,0,0
2297,129,-346,-16136,1572,0,0,0,0,0,0,0,0,0,0,0
2298,129,-252,-16148,1218,0,0,0,0,0,0,0,0,0,0,0
2299,129,-178,-16210,1332,0,0,0,0,0,0,0,0,0,0,0
2300,129,-264,-16220,1166,0,0,0,0,0,0,0,0,0,0,0
2301,129,-150,-16224,1256,0,0,0,0,0,0,0,0,0,0,0
2302,129,-268,-16210,1318,0,0,0,0,0,0,0,0,0,0,0
2303,129,-252,-16228,1372,0,0,0,0,0,0,0,0,0,0,0
2304,129,-282,-16218,1300,0,0,0,0,0,0,0,0,0,0,0
2305,129,-248,-16246,1132,0,0,0,0,0,0,0,0,0,0,0
2306,129,-264,-16252,1228,0,0,0,0,0,0,0,0,0,0,0
2307,129,-180,-16130,1398,0,0,0,0,0,0,0,0,0,0,0
2308,129,-208,-16216,1180,0,0,0,0,0,0,0,0,0,0,0
2309,129,-344,-16180,1342,0,0,0,0,0,0,0,0,0,0,0
2310,129,-216,-16148,1296,0,0,0,0,0,0,0,0,0,0,0
2311,129,-184,-16246,1348,0,0,0,0,0,0,0,0,0,0,0
2312,129,-282,-16210,1338,0,0,0,0,0,0,0,0,0,0,0
2313,129,-124,-16318,1366,0,0,0,0,0,0,0,0,0,0,0
2314,129,-298,-16298,726,0,0,0,0,0,0,0,0,0,0,0
2315,129,-534,-16136,1844,0,0,0,0,0,0,0,0,0,0,0
2316,129,-354,-16128,1016,0,0,0,0,0,0,0,0,0,0,0
2317,129,-292,-16172,1390,0,0,0,0,0,0,0,0,0,0,0
2318,129,-140,-16244,1726,0,0,0,0,0,0,0,0,0,0,0
2319,129,-328,-16102,1548,0,0,0,0,0,0,0,0,0,0,0
2320,129,-296,-16198,1616,0,0,0,0,0,0,0,0,0,0,0
2321,129,-328,-16222,1554,0,0,0,0,0,0,0,0,0,0,0
2322,129,-292,-16156,1600,0,0,0,0,0,0,0,0,0,0,0
2323,129,-218,-16186,1482,0,0,0,0,0,0,0,0,0,0,0
2324,129,-266,-16162,1546,0,0,0,0,0,0,0,0,0,0,0
2325,129,-198,-16176,1536,0,0,0,0,0,0,0,0,0,0,0
2326,129,-216,-16184,1398,0,0,0,0,0,0,0,0,0,0,0
2327,129,-298,-16216,1516,0,0,0,0,0,0,0,0,0,0,0
2328,129,-258,-16230,1566,0,0,0,0,0,0,0,0,0,0,0
2329,129,-242,-16244,1478,0,0,0,0,0,0,0,0,0,0,0
2330,129,-156,-16130,1686,0,0,0,0,0,0,0,0,0,0,0
2331,129,-274,-16200,1436,0,0,0,0,0,0,0,0,0,0,0
2332,129,-256,-16146,1416,0,0,0,0,0,0,0,0,0,0,0
2333,129,-308,-16144,1422,0,0,0,0,0,0,0,0,0,0,0
2334,129,-262,-16240,1574,0,0,0,0,0,0,0,0,0,0,0
2335,129,-222,-16248,1696,0,0,0,0,0,0,0,0,0,0,0
2336,129,-356,-16202,1332,0,0,0,0,0,0,0,0,0,0,0
2337,129,-240,-16232,1576,0,0,0,0,0,0,0,0,0,0,0
2338,129,-258,-16206,1562,0,0,0,0,0,0,0,0,0,0,0
2339,129,-242,-16190,1492,0,0,0,0,0,0,0,0,0,0,0
2340,129,-294,-16176,1450,0,0,0,0,0,0,0,0,0,0,0
2341,129,-240,-16202,1354,0,0,0,0,0,0,0,0,0,0,0
2342,129,-220,-16180,1516,0,0,0,0,0,0,0,0,0,0,0
2343,129,-266,-16214,1476,0,0,0,0,0,0,0,0,0,0,0
2344,129,-244,-16184,1626,0,0,0,0,0,0,0,0,0,0,0
2345,129,-316,-16186,1540,0,0,0,0,0,0,0,0,0,0,0
2346,129,-298,-16144,1588,0,0,0,0,0,0,0,0,0,0,0
2347,129,-284,-16180,1524,0,0,0,0,0,0,0,0,0,0,0
2348,129,-238,-16268,1486,0,0,0,0,0,0,0,0,0,0,0
2349,129,-310,-16166,1430,0,0,0,0,0,0,0,0,0,0,0
2350,129,-286,-16152,1454,0,0,0,0,0,0,0,0,0,0,0
2351,129,-316,-16162,1620,0,0,0,0,0,0,0,0,0,0,0
2352,129,-290,-16146,1570,0,0,0,0,0,0,0,0,0,0,0
2353,129,-286,-16078,1584,0,0,0,0,0,0,0,0,0,0,0
2354,129,-244,-16144,1580,0,0,0,0,0,0,0,0,0,0,0
2355,129,-256,-16136,1498,0,0,0,0,0,0,0,0,0,0,0
2356,129,-298,-16230,1516,0,0,0,0,0,0,0,0,0,0,0
2357,129,-166,-16146,1574,0,0,0,0,0,0,0,0,0,0,0
2358,129,-236,-16130,1576,0,0,0,0,0,0,0,0,0,0,0
2359,129,-220,-16198,1398,0,0,0,0,0,0,0,0,0,0,0
2360,129,-292,-16148,1486,0,0,0,0,0,0,0,0,0,0,0
2361,129,-262,-16182,1626,0,0,0,0,0,0,0,0,0,0,0
2362,129,-234,-16172,1520,0,0,0,0,0,0,0,0,0,0,0
2363,129,-242,-16112,1576,0,0,0,0,0,0,0,0,0,0,0
2364,129,-270,-16206,1526,0,0,0,0,0,0,0,0,0,0,0
2365,129,-164,-16198,1482,0,0,0,0,0,0,0,0,0,0,0
2366,129,-232,-16180,1492,0,0,0,0,0,0,0,0,0,0,0
2367,129,-236,-16072,1484,0,0,0,0,0,0,0,0,0,0,0
2368,129,-290,-16244,1512,0,0,0,0,0,0,0,0,0,0,0
2369,129,-328,-16208,1556,0,0,0,0,0,0,0,0,0,0,0
2370,129,-358,-16192,1516,0,0,0,0,0,0,0,0,0,0,0
2371,129,-244,-16080,1394,0,0,0,0,0,0,0,0,0,0,0
2372,129,-312,-16246,1588,0,0,0,0,0,0,0,0,0,0,0
2373,129,-244,-16204,1732,0,0,0,0,0,0,0,0,0,0,0
2374,129,-282,-16112,1678,0,0,0,0,0,0,0,0,0,0,0
2375,129,-278,-16286,1352,0,0,0,0,0,0,0,0,0,0,0
2376,129,-322,-16126,1692,0,0,0,0,0,0,0,0,0,0,0
2377,129,-100,-16204,1758,0,0,0,0,0,0,0,0,0,0,0
2378,129,-412,-16078,1590,0,0,0,0,0,0,0,0,0,0,0
2379,129,-326,-16096,1294,0,0,0,0,0,0,0,0,0,0,0
2380,129,-232,-16194,2156,0,0,0,0,0,0,0,0,0,0,0
2381,129,-316,-16212,1254,0,0,0,0,0,0,0,0,0,0,0
2382,129,-318,-16144,720,0,0,0,0,0,0,0,0,0,0,0
2383,129,-280,-16206,944,0,0,0,0,0,0,0,0,0,0,0
2384,129,-294,-16290,960,0,0,0,0,0,0,0,0,0,0,0
2385,129,-270,-16218,1366,0,0,0,0,0,0,0,0,0,0,0
2386,129,-130,-16336,114,0,0,0,0,0,0,0,0,0,0,0
2387,129,-368,-16188,368,0,0,0,0,0,0,0,0,0,0,0
2388,129,-178,-16252,704,0,0,0,0,0,0,0,0,0,0,0
2389,129,-150,-16262,514,0,0,0,0,0,0,0,0,0,0,0
2390,129,-220,-16268,370,0,0,0,0,0,0,0,0,0,0,0
2391,129,-300,-16298,318,0,0,0,0,0,0,0,0,0,0,0
2392,129,-302,-16216,490,0,0,0,0,0,0,0,0,0,0,0
2393,129,-224,-16232,516,0,0,0,0,0,0,0,0,0,0,0
2394,129,-270,-16314,538,0,0,0,0,0,0,0,0,0,0,0
2395,129,-302,-16170,436,0,0,0,0,0,0,0,0,0,0,0
2396,129,-250,-16230,534,0,0,0,0,0,0,0,0,0,0,0
2397,129,-252,-16206,628,0,0,0,0,0,0,0,0,0,0,0
2398,129,-294,-16290,478,0,0,0,0,0,0,0,0,0,0,0
2399,129,-258,-16274,180,0,0,0,0,0,0,0,0,0,0,0
2400,129,-338,-16162,376,0,0,0,0,0,0,0,0,0,0,0
2401,129,-170,-16192,378,0,0,0,0,0,0,0,0,0,0,0
2402,129,-226,-16280,308,0,0,0,0,0,0,0,0,0,0,0
2403,129,-112,-16320,206,0,0,0,0,0,0,0,0,0,0,0
2404,129,-254,-16232,478,0,0,0,0,0,0,0,0,0,0,0
2405,129,-294,-16194,322,0,0,0,0,0,0,0,0,0,0,0
2406,129,-308,-16266,198,0,0,0,0,0,0,0,0,0,0,0
2407,129,-246,-16296,264,0,0,0,0,0,0,0,0,0,0,0
2408,129,-192,-16342,478,0,0,0,0,0,0,0,0,0,0,0
2409,129,-344,-16272,260,0,0,0,0,0,0,0,0,0,0,0
2410,129,-242,-16282,322,0,0,0,0,0,0,0,0,0,0,0
2411,129,-276,-16212,278,0,0,0,0,0,0,0,0,0,0,0
2412,129,-246,-16190,660,0,0,0,0,0,0,0,0,0,0,0
2413,129,-284,-16286,406,0,0,0,0,0,0,0,0,0,0,0
2414,129,-398,-16264,458,0,0,0,0,0,0,0,0,0,0,0
2415,129,-324,-16278,632,0,0,0,0,0,0,0,0,0,0,0
2416,129,-308,-16260,480,0,0,0,0,0,0,0,0,0,0,0
2417,129,-350,-16280,494,0,0,0,0,0,0,0,0,0,0,0
2418,129,-294,-16158,516,0,0,0,0,0,0,0,0,0,0,0
2419,129,-272,-16280,426,0,0,0,0,0,0,0,0,0,0,0
2420,129,-270,-16218,556,0,0,0,0,0,0,0,0,0,0,0
2421,129,-300,-16304,496,0,0,0,0,0,0,0,0,0,0,0
2422,129,-328,-16278,460,0,0,0,0,0,0,0,0,0,0,0
2423,129,-312,-16326,498,0,0,0,0,0,0,0,0,0,0,0
2424,129,-254,-16244,604,0,0,0,0,0,0,0,0,0,0,0
2425,129,-220,-16244,364,0,0,0,0,0,0,0,0,0,0,0
2426,129,-358,-16314,574,0,0,0,0,0,0,0,0,0,0,0
2427,129,-360,-16244,474,0,0,0,0,0,0,0,0,0,0,0
2428,129,-302,-16244,760,0,0,0,0,0,0,0,0,0,0,0
2429,129,-294,-16186,598,0,0,0,0,0,0,0,0,0,0,0
2430,129,-356,-16206,488,0,0,0,0,0,0,0,0,0,0,0
2431,129,-334,-16264,534,0,0,0,0,0,0,0,0,0,0,0
2432,129,-274,-16232,840,0,0,0,0,0,0,0,0,0,0,0
2433,129,-266,-16122,564,0,0,0,0,0,0,0,0,0,0,0
2434,129,-420,-16218,554,0,0,0,0,0,0,0,0,0,0,0
2435,129,-404,-16230,542,0,0,0,0,0,0,0,0,0,0,0
2436,129,-320,-16236,756,0,0,0,0,0,0,0,0,0,0,0
2437,129,-368,-16272,528,0,0,0,0,0,0,0,0,0,0,0
2438,129,-374,-16316,672,0,0,0,0,0,0,0,0,0,0,0
2439,129,-426,-16218,650,0,0,0,0,0,0,0,0,0,0,0
2440,129,-388,-16352,710,0,0,0,0,0,0,0,0,0,0,0
2441,129,-346,-16314,514,0,0,0,0,0,0,0,0,0,0,0
2442,129,-406,-16276,642,0,0,0,0,0,0,0,0,0,0,0
2443,129,-338,-16268,812,0,0,0,0,0,0,0,0,0,0,0
2444,129,-400,-16184,808,0,0,0,0,0,0,0,0,0,0,0
2445,129,-340,-16208,582,0,0,0,0,0,0,0,0,0,0,0
2446,129,-380,-16224,632,0,0,0,0,0,0,0,0,0,0,0
2447,129,-322,-16294,564,0,0,0,0,0,0,0,0,0,0,0
2448,129,-380,-16226,836,0,0,0,0,0,0,0,0,0,0,0
2449,129,-378,-16274,668,0,0,0,0,0,0,0,0,0,0,0
2450,129,-436,-16248,566,0,0,0,0,0,0,0,0,0,0,0
2451,129,-332,-16284,670,0,0,0,0,0,0,0,0,0,0,0
2452,129,-304,-16260,566,0,0,0,0,0,0,0,0,0,0,0
2453,129,-362,-16274,76,0,0,0,0,0,0,0,0,0,0,0
2454,129,-94,-16336,814,0,0,0,0,0,0,0,0,0,0,0
2455,129,-404,-16202,652,0,0,0,0,0,0,0,0,0,0,0
2456,129,-422,-16180,1158,0,0,0,0,0,0,0,0,0,0,0
2457,129,-388,-16184,1170,0,0,0,0,0,0,0,0,0,0,0
2458,129,-388,-16224,892,0,0,0,0,0,0,0,0,0,0,0
2459,129,-308,-16246,804,0,0,0,0,0,0,0,0,0,0,0
2460,129,-412,-16262,1130,0,0,0,0,0,0,0,0,0,0,0
2461,129,-236,-16238,1148,0,0,0,0,0,0,0,0,0,0,0
2462,129,-508,-16168,1124,0,0,0,0,0,0,0,0,0,0,0
2463,129,-360,-16254,1122,0,0,0,0,0,0,0,0,0,0,0
2464,129,-416,-16316,1308,0,0,0,0,0,0,0,0,0,0,0
2465,129,-440,-16220,1324,0,0,0,0,0,0,0,0,0,0,0
2466,129,-338,-16152,1204,0,0,0,0,0,0,0,0,0,0,0
2467,129,-404,-16188,1182,0,0,0,0,0,0,0,0,0,0,0
2468,129,-504,-16210,1168,0,0,0,0,0,0,0,0,0,0,0
2469,129,-402,-16226,1212,0,0,0,0,0,0,0,0,0,0,0
2470,129,-392,-16134,1130,0,0,0,0,0,0,0,0,0,0,0
2471,129,-348,-16202,1152,0,0,0,0,0,0,0,0,0,0,0
2472,129,-432,-16108,1314,0,0,0,0,0,0,0,0,0,0,0
2473,129,-426,-16268,1170,0,0,0,0,0,0,0,0,0,0,0
2474,129,-410,-16214,1048,0,0,0,0,0,0,0,0,0,0,0
2475,129,-488,-16212,1208,0,0,0,0,0,0,0,0,0,0,0
2476,129,-390,-16210,1476,0,0,0,0,0,0,0,0,0,0,0
2477,129,-402,-16158,1092,0,0,0,0,0,0,0,0,0,0,0
2478,129,-454,-16212,1314,0,0,0,0,0,0,0,0,0,0,0
2479,129,-460,-16220,1140,0,0,0,0,0,0,0,0,0,0,0
2480,129,-340,-16248,1224,0,0,0,0,0,0,0,0,0,0,0
2481,129,-426,-16142,1220,0,0,0,0,0,0,0,0,0,0,0
2482,129,-468,-16194,1216,0,0,0,0,0,0,0,0,0,0,0
2483,129,-372,-16250,1094,0,0,0,0,0,0,0,0,0,0,0
2484,129,-388,-16188,1294,0,0,0,0,0,0,0,0,0,0,0
2485,129,-394,-16188,1016,0,0,0,0,0,0,0,0,0,0,0
2486,129,-422,-16244,1298,0,0,0,0,0,0,0,0,0,0,0
2487,129,-434,-16290,1180,0,0,0,0,0,0,0,0,0,0,0
2488,129,-428,-16238,1304,0,0,0,0,0,0,0,0,0,0,0
2489,129,-432,-16320,1022,0,0,0,0,0,0,0,0,0,0,0
2490,129,-442,-16178,1232,0,0,0,0,0,0,0,0,0,0,0
2491,129,-382,-16260,1170,0,0,0,0,0,0,0,0,0,0,0
2492,129,-314,-16142,1292,0,0,0,0,0,0,0,0,0,0,0
