ProgrNum,PacketType,AccX,AccY,AccZ,GyrX,GyrY,GyrZ,MagX,MagY,MagZ,Q0,Q1,Q2,Q3,Vbat
0,129,10722,12700,276,0,0,0,0,0,0,0,0,0,0,0
1,129,10762,12654,344,0,0,0,0,0,0,0,0,0,0,0
2,129,10718,12596,454,0,0,0,0,0,0,0,0,0,0,0
3,129,10696,12722,260,0,0,0,0,0,0,0,0,0,0,0
4,129,10722,12634,236,0,0,0,0,0,0,0,0,0,0,0
5,129,10734,12658,378,0,0,0,0,0,0,0,0,0,0,0
6,129,10798,12676,336,0,0,0,0,0,0,0,0,0,0,0
7,129,10694,12594,230,0,0,0,0,0,0,0,0,0,0,0
8,129,10734,12696,376,0,0,0,0,0,0,0,0,0,0,0
9,129,10792,12720,402,0,0,0,0,0,0,0,0,0,0,0
10,129,10718,12668,230,0,0,0,0,0,0,0,0,0,0,0
11,129,10760,12714,434,0,0,0,0,0,0,0,0,0,0,0
12,129,10726,12654,320,0,0,0,0,0,0,0,0,0,0,0
13,129,10724,12604,322,0,0,0,0,0,0,0,0,0,0,0
14,129,10732,12678,308,0,0,0,0,0,0,0,0,0,0,0
15,129,10752,12670,350,0,0,0,0,0,0,0,0,0,0,0
16,129,10770,12710,308,0,0,0,0,0,0,0,0,0,0,0
17,129,10688,12708,322,0,0,0,0,0,0,0,0,0,0,0
18,129,10718,12634,400,0,0,0,0,0,0,0,0,0,0,0
19,129,10752,12660,324,0,0,0,0,0,0,0,0,0,0,0
20,129,10716,12744,358,0,0,0,0,0,0,0,0,0,0,0
21,129,10736,12674,304,0,0,0,0,0,0,0,0,0,0,0
22,129,10736,12694,278,0,0,0,0,0,0,0,0,0,0,0
23,129,10734,12678,326,0,0,0,0,0,0,0,0,0,0,0
24,129,10826,12654,256,0,0,0,0,0,0,0,0,0,0,0
25,129,10664,12640,358,0,0,0,0,0,0,0,0,0,0,0
26,129,10750,12724,360,0,0,0,0,0,0,0,0,0,0,0
27,129,10760,12656,252,0,0,0,0,0,0,0,0,0,0,0
28,129,10740,12664,226,0,0,0,0,0,0,0,0,0,0,0
29,129,10804,12806,350,0,0,0,0,0,0,0,0,0,0,0
30,129,10762,12610,264,0,0,0,0,0,0,0,0,0,0,0
31,129,10750,12718,222,0,0,0,0,0,0,0,0,0,0,0
32,129,10766,12722,294,0,0,0,0,0,0,0,0,0,0,0
33,129,10730,12630,356,0,0,0,0,0,0,0,0,0,0,0
34,129,10744,12756,366,0,0,0,0,0,0,0,0,0,0,0
35,129,10766,12690,334,0,0,0,0,0,0,0,0,0,0,0
36,129,10740,12650,256,0,0,0,0,0,0,0,0,0,0,0
37,129,10660,12740,248,0,0,0,0,0,0,0,0,0,0,0
38,129,10756,12578,326,0,0,0,0,0,0,0,0,0,0,0
39,129,10788,12646,228,0,0,0,0,0,0,0,0,0,0,0
40,129,10766,12764,256,0,0,0,0,0,0,0,0,0,0,0
41,129,10726,12670,336,0,0,0,0,0,0,0,0,0,0,0
42,129,10764,12682,312,0,0,0,0,0,0,0,0,0,0,0
43,129,10754,12706,434,0,0,0,0,0,0,0,0,0,0,0
44,129,10798,12736,246,0,0,0,0,0,0,0,0,0,0,0
45,129,10708,12694,354,0,0,0,0,0,0,0,0,0,0,0
46,129,10760,12712,320,0,0,0,0,0,0,0,0,0,0,0
47,129,10704,12654,414,0,0,0,0,0,0,0,0,0,0,0
48,129,10666,12622,26,0,0,0,0,0,0,0,0,0,0,0
49,129,10748,12740,248,0,0,0,0,0,0,0,0,0,0,0
50,129,10762,12742,458,0,0,0,0,0,0,0,0,0,0,0
51,129,10748,12638,352,0,0,0,0,0,0,0,0,0,0,0
52,129,10700,12752,242,0,0,0,0,0,0,0,0,0,0,0
53,129,10768,12634,336,0,0,0,0,0,0,0,0,0,0,0
54,129,10750,12680,324,0,0,0,0,0,0,0,0,0,0,0
55,129,10746,12712,398,0,0,0,0,0,0,0,0,0,0,0
56,129,10750,12708,256,0,0,0,0,0,0,0,0,0,0,0
57,129,10736,12662,416,0,0,0,0,0,0,0,0,0,0,0
58,129,10794,12784,222,0,0,0,0,0,0,0,0,0,0,0
59,129,10614,12642,384,0,0,0,0,0,0,0,0,0,0,0
60,129,10834,12692,388,0,0,0,0,0,0,0,0,0,0,0
61,129,10744,12714,284,0,0,0,0,0,0,0,0,0,0,0
62,129,10712,12664,212,0,0,0,0,0,0,0,0,0,0,0
63,129,10696,12710,242,0,0,0,0,0,0,0,0,0,0,0
64,129,10748,12742,296,0,0,0,0,0,0,0,0,0,0,0
65,129,10742,12610,408,0,0,0,0,0,0,0,0,0,0,0
66,129,10696,12718,194,0,0,0,0,0,0,0,0,0,0,0
67,129,10792,12816,274,0,0,0,0,0,0,0,0,0,0,0
68,129,10824,12636,206,0,0,0,0,0,0,0,0,0,0,0
69,129,10732,12712,306,0,0,0,0,0,0,0,0,0,0,0
70,129,10678,12708,374,0,0,0,0,0,0,0,0,0,0,0
71,129,10686,12634,290,0,0,0,0,0,0,0,0,0,0,0
72,129,10780,12664,236,0,0,0,0,0,0,0,0,0,0,0
73,129,10782,12688,238,0,0,0,0,0,0,0,0,0,0,0
74,129,10736,12590,398,0,0,0,0,0,0,0,0,0,0,0
75,129,10666,12762,434,0,0,0,0,0,0,0,0,0,0,0
76,129,10722,12646,300,0,0,0,0,0,0,0,0,0,0,0
77,129,10708,12684,296,0,0,0,0,0,0,0,0,0,0,0
78,129,10718,12692,312,0,0,0,0,0,0,0,0,0,0,0
79,129,10808,12636,330,0,0,0,0,0,0,0,0,0,0,0
80,129,10766,12714,186,0,0,0,0,0,0,0,0,0,0,0
81,129,10690,12692,278,0,0,0,0,0,0,0,0,0,0,0
82,129,10784,12656,258,0,0,0,0,0,0,0,0,0,0,0
83,129,10684,12754,268,0,0,0,0,0,0,0,0,0,0,0
84,129,10772,12700,462,0,0,0,0,0,0,0,0,0,0,0
85,129,10796,12660,440,0,0,0,0,0,0,0,0,0,0,0
86,129,10804,12716,280,0,0,0,0,0,0,0,0,0,0,0
87,129,10732,12768,380,0,0,0,0,0,0,0,0,0,0,0
88,129,10754,12646,390,0,0,0,0,0,0,0,0,0,0,0
89,129,10734,12740,432,0,0,0,0,0,0,0,0,0,0,0
90,129,10720,12764,328,0,0,0,0,0,0,0,0,0,0,0
91,129,10780,12630,262,0,0,0,0,0,0,0,0,0,0,0
92,129,10670,12696,230,0,0,0,0,0,0,0,0,0,0,0
93,129,10750,12750,278,0,0,0,0,0,0,0,0,0,0,0
94,129,10734,12672,278,0,0,0,0,0,0,0,0,0,0,0
95,129,10736,12622,236,0,0,0,0,0,0,0,0,0,0,0
96,129,10682,12776,170,0,0,0,0,0,0,0,0,0,0,0
97,129,10708,12736,356,0,0,0,0,0,0,0,0,0,0,0
98,129,10728,12716,170,0,0,0,0,0,0,0,0,0,0,0
99,129,10744,12718,320,0,0,0,0,0,0,0,0,0,0,0
100,129,10816,12672,294,0,0,0,0,0,0,0,0,0,0,0
101,129,10736,12744,356,0,0,0,0,0,0,0,0,0,0,0
102,129,10750,12690,398,0,0,0,0,0,0,0,0,0,0,0
103,129,10702,12612,336,0,0,0,0,0,0,0,0,0,0,0
104,129,10738,12730,250,0,0,0,0,0,0,0,0,0,0,0
105,129,10752,12674,382,0,0,0,0,0,0,0,0,0,0,0
106,129,10674,12630,272,0,0,0,0,0,0,0,0,0,0,0
107,129,10712,12748,356,0,0,0,0,0,0,0,0,0,0,0
108,129,10802,12720,230,0,0,0,0,0,0,0,0,0,0,0
109,129,10760,12662,436,0,0,0,0,0,0,0,0,0,0,0
110,129,10748,12754,278,0,0,0,0,0,0,0,0,0,0,0
111,129,10758,12668,318,0,0,0,0,0,0,0,0,0,0,0
112,129,10764,12724,328,0,0,0,0,0,0,0,0,0,0,0
113,129,10754,12768,336,0,0,0,0,0,0,0,0,0,0,0
114,129,10736,12624,360,0,0,0,0,0,0,0,0,0,0,0
115,129,10706,12616,236,0,0,0,0,0,0,0,0,0,0,0
116,129,10644,12762,246,0,0,0,0,0,0,0,0,0,0,0
117,129,10690,12646,308,0,0,0,0,0,0,0,0,0,0,0
118,129,10704,12694,298,0,0,0,0,0,0,0,0,0,0,0
119,129,10752,12728,424,0,0,0,0,0,0,0,0,0,0,0
120,129,10712,12638,250,0,0,0,0,0,0,0,0,0,0,0
121,129,10746,12694,338,0,0,0,0,0,0,0,0,0,0,0
122,129,10782,12634,298,0,0,0,0,0,0,0,0,0,0,0
123,129,10762,12642,288,0,0,0,0,0,0,0,0,0,0,0
124,129,10752,12674,156,0,0,0,0,0,0,0,0,0,0,0
125,129,10850,12798,246,0,0,0,0,0,0,0,0,0,0,0
126,129,10660,12620,222,0,0,0,0,0,0,0,0,0,0,0
127,129,10704,12676,386,0,0,0,0,0,0,0,0,0,0,0
128,129,10738,12784,386,0,0,0,0,0,0,0,0,0,0,0
129,129,10726,12642,336,0,0,0,0,0,0,0,0,0,0,0
130,129,10736,12718,256,0,0,0,0,0,0,0,0,0,0,0
131,129,10702,12782,316,0,0,0,0,0,0,0,0,0,0,0
132,129,10832,12714,294,0,0,0,0,0,0,0,0,0,0,0
133,129,10760,12660,308,0,0,0,0,0,0,0,0,0,0,0
134,129,10738,12742,340,0,0,0,0,0,0,0,0,0,0,0
135,129,10794,12656,296,0,0,0,0,0,0,0,0,0,0,0
136,129,10780,12740,220,0,0,0,0,0,0,0,0,0,0,0
137,129,10652,12722,270,0,0,0,0,0,0,0,0,0,0,0
138,129,10746,12618,340,0,0,0,0,0,0,0,0,0,0,0
139,129,10718,12714,424,0,0,0,0,0,0,0,0,0,0,0
140,129,10756,12676,272,0,0,0,0,0,0,0,0,0,0,0
141,129,10714,12732,290,0,0,0,0,0,0,0,0,0,0,0
142,129,10662,12718,294,0,0,0,0,0,0,0,0,0,0,0
143,129,10716,12768,218,0,0,0,0,0,0,0,0,0,0,0
144,129,10708,12632,214,0,0,0,0,0,0,0,0,0,0,0
145,129,10752,12810,302,0,0,0,0,0,0,0,0,0,0,0
146,129,10696,12774,316,0,0,0,0,0,0,0,0,0,0,0
147,129,10778,12610,392,0,0,0,0,0,0,0,0,0,0,0
148,129,10846,12728,352,0,0,0,0,0,0,0,0,0,0,0
149,129,10746,12660,250,0,0,0,0,0,0,0,0,0,0,0
150,129,10738,12596,150,0,0,0,0,0,0,0,0,0,0,0
151,129,10722,12694,298,0,0,0,0,0,0,0,0,0,0,0
152,129,10794,12636,326,0,0,0,0,0,0,0,0,0,0,0
153,129,10688,12560,426,0,0,0,0,0,0,0,0,0,0,0
154,129,10748,12696,220,0,0,0,0,0,0,0,0,0,0,0
155,129,10774,12648,312,0,0,0,0,0,0,0,0,0,0,0
156,129,10724,12714,294,0,0,0,0,0,0,0,0,0,0,0
157,129,10772,12708,216,0,0,0,0,0,0,0,0,0,0,0
158,129,10726,12630,224,0,0,0,0,0,0,0,0,0,0,0
159,129,10684,12720,288,0,0,0,0,0,0,0,0,0,0,0
160,129,10718,12734,308,0,0,0,0,0,0,0,0,0,0,0
161,129,10716,12716,304,0,0,0,0,0,0,0,0,0,0,0
162,129,10732,12700,334,0,0,0,0,0,0,0,0,0,0,0
163,129,10758,12718,278,0,0,0,0,0,0,0,0,0,0,0
164,129,10758,12722,198,0,0,0,0,0,0,0,0,0,0,0
165,129,10742,12658,288,0,0,0,0,0,0,0,0,0,0,0
166,129,10764,12678,268,0,0,0,0,0,0,0,0,0,0,0
167,129,10728,12654,394,0,0,0,0,0,0,0,0,0,0,0
168,129,10786,12706,226,0,0,0,0,0,0,0,0,0,0,0
169,129,10790,12780,340,0,0,0,0,0,0,0,0,0,0,0
170,129,10736,12710,282,0,0,0,0,0,0,0,0,0,0,0
171,129,10794,12670,366,0,0,0,0,0,0,0,0,0,0,0
172,129,10692,12666,236,0,0,0,0,0,0,0,0,0,0,0
173,129,10710,12642,218,0,0,0,0,0,0,0,0,0,0,0
174,129,10712,12666,354,0,0,0,0,0,0,0,0,0,0,0
175,129,10706,12652,142,0,0,0,0,0,0,0,0,0,0,0
176,129,10744,12644,328,0,0,0,0,0,0,0,0,0,0,0
177,129,10814,12800,338,0,0,0,0,0,0,0,0,0,0,0
178,129,10662,12680,288,0,0,0,0,0,0,0,0,0,0,0
179,129,10716,12678,378,0,0,0,0,0,0,0,0,0,0,0
180,129,10720,12798,238,0,0,0,0,0,0,0,0,0,0,0
181,129,10744,12702,368,0,0,0,0,0,0,0,0,0,0,0
182,129,10722,12680,284,0,0,0,0,0,0,0,0,0,0,0
183,129,10754,12746,296,0,0,0,0,0,0,0,0,0,0,0
184,129,10712,12656,174,0,0,0,0,0,0,0,0,0,0,0
185,129,10744,12674,226,0,0,0,0,0,0,0,0,0,0,0
186,129,10784,12662,210,0,0,0,0,0,0,0,0,0,0,0
187,129,10668,12666,348,0,0,0,0,0,0,0,0,0,0,0
188,129,10676,12658,306,0,0,0,0,0,0,0,0,0,0,0
189,129,10778,12716,432,0,0,0,0,0,0,0,0,0,0,0
190,129,10690,12786,344,0,0,0,0,0,0,0,0,0,0,0
191,129,10728,12714,414,0,0,0,0,0,0,0,0,0,0,0
192,129,10712,12736,244,0,0,0,0,0,0,0,0,0,0,0
193,129,10708,12734,240,0,0,0,0,0,0,0,0,0,0,0
194,129,10662,12686,242,0,0,0,0,0,0,0,0,0,0,0
195,129,10730,12674,378,0,0,0,0,0,0,0,0,0,0,0
196,129,10752,12712,274,0,0,0,0,0,0,0,0,0,0,0
197,129,10708,12720,418,0,0,0,0,0,0,0,0,0,0,0
198,129,10810,12670,330,0,0,0,0,0,0,0,0,0,0,0
199,129,10700,12618,334,0,0,0,0,0,0,0,0,0,0,0
200,129,10738,12668,188,0,0,0,0,0,0,0,0,0,0,0
201,129,10816,12678,306,0,0,0,0,0,0,0,0,0,0,0
202,129,10724,12638,282,0,0,0,0,0,0,0,0,0,0,0
203,129,10768,12634,258,0,0,0,0,0,0,0,0,0,0,0
204,129,10764,12656,268,0,0,0,0,0,0,0,0,0,0,0
205,129,10758,12756,266,0,0,0,0,0,0,0,0,0,0,0
206,129,10746,12746,326,0,0,0,0,0,0,0,0,0,0,0
207,129,10746,12712,248,0,0,0,0,0,0,0,0,0,0,0
208,129,10732,12678,282,0,0,0,0,0,0,0,0,0,0,0
209,129,10802,12742,314,0,0,0,0,0,0,0,0,0,0,0
210,129,10760,12674,346,0,0,0,0,0,0,0,0,0,0,0
211,129,10730,12624,352,0,0,0,0,0,0,0,0,0,0,0
212,129,10742,12714,250,0,0,0,0,0,0,0,0,0,0,0
213,129,10696,12692,286,0,0,0,0,0,0,0,0,0,0,0
214,129,10734,12678,292,0,0,0,0,0,0,0,0,0,0,0
215,129,10762,12762,378,0,0,0,0,0,0,0,0,0,0,0
216,129,10824,12644,312,0,0,0,0,0,0,0,0,0,0,0
217,129,10772,12630,388,0,0,0,0,0,0,0,0,0,0,0
218,129,10744,12724,412,0,0,0,0,0,0,0,0,0,0,0
219,129,10740,12572,304,0,0,0,0,0,0,0,0,0,0,0
220,129,10728,12672,306,0,0,0,0,0,0,0,0,0,0,0
221,129,10796,12738,322,0,0,0,0,0,0,0,0,0,0,0
222,129,10636,12624,276,0,0,0,0,0,0,0,0,0,0,0
223,129,10754,12668,322,0,0,0,0,0,0,0,0,0,0,0
224,129,10766,12680,310,0,0,0,0,0,0,0,0,0,0,0
225,129,10752,12610,252,0,0,0,0,0,0,0,0,0,0,0
226,129,10746,12640,276,0,0,0,0,0,0,0,0,0,0,0
227,129,10714,12726,328,0,0,0,0,0,0,0,0,0,0,0
228,129,10724,12656,138,0,0,0,0,0,0,0,0,0,0,0
229,129,10754,12662,358,0,0,0,0,0,0,0,0,0,0,0
230,129,10742,12720,274,0,0,0,0,0,0,0,0,0,0,0
231,129,10672,12636,394,0,0,0,0,0,0,0,0,0,0,0
232,129,10770,12700,292,0,0,0,0,0,0,0,0,0,0,0
233,129,10736,12782,370,0,0,0,0,0,0,0,0,0,0,0
234,129,10732,12624,230,0,0,0,0,0,0,0,0,0,0,0
235,129,10800,12778,394,0,0,0,0,0,0,0,0,0,0,0
236,129,10744,12724,162,0,0,0,0,0,0,0,0,0,0,0
237,129,10708,12666,420,0,0,0,0,0,0,0,0,0,0,0
238,129,10756,12714,220,0,0,0,0,0,0,0,0,0,0,0
239,129,10768,12662,318,0,0,0,0,0,0,0,0,0,0,0
240,129,10808,12670,204,0,0,0,0,0,0,0,0,0,0,0
241,129,10708,12726,348,0,0,0,0,0,0,0,0,0,0,0
242,129,10706,12662,342,0,0,0,0,0,0,0,0,0,0,0
243,129,10780,12652,406,0,0,0,0,0,0,0,0,0,0,0
244,129,10688,12670,250,0,0,0,0,0,0,0,0,0,0,0
245,129,10794,12768,298,0,0,0,0,0,0,0,0,0,0,0
246,129,10726,12614,348,0,0,0,0,0,0,0,0,0,0,0
247,129,10794,12688,444,0,0,0,0,0,0,0,0,0,0,0
248,129,10694,12730,312,0,0,0,0,0,0,0,0,0,0,0
249,129,10740,12658,300,0,0,0,0,0,0,0,0,0,0,0
250,129,10778,12728,228,0,0,0,0,0,0,0,0,0,0,0
251,129,10762,12724,284,0,0,0,0,0,0,0,0,0,0,0
252,129,10736,12678,366,0,0,0,0,0,0,0,0,0,0,0
253,129,10694,12786,410,0,0,0,0,0,0,0,0,0,0,0
254,129,10780,12712,308,0,0,0,0,0,0,0,0,0,0,0
255,129,10712,12704,458,0,0,0,0,0,0,0,0,0,0,0
256,129,10738,12714,244,0,0,0,0,0,0,0,0,0,0,0
257,129,10788,12710,306,0,0,0,0,0,0,0,0,0,0,0
258,129,10654,12654,292,0,0,0,0,0,0,0,0,0,0,0
259,129,10744,12740,408,0,0,0,0,0,0,0,0,0,0,0
260,129,10758,12698,340,0,0,0,0,0,0,0,0,0,0,0
261,129,10674,12680,308,0,0,0,0,0,0,0,0,0,0,0
262,129,10722,12700,306,0,0,0,0,0,0,0,0,0,0,0
263,129,10748,12576,268,0,0,0,0,0,0,0,0,0,0,0
264,129,10746,12636,364,0,0,0,0,0,0,0,0,0,0,0
265,129,10736,12738,352,0,0,0,0,0,0,0,0,0,0,0
266,129,10704,12674,314,0,0,0,0,0,0,0,0,0,0,0
267,129,10686,12702,280,0,0,0,0,0,0,0,0,0,0,0
268,129,10732,12696,302,0,0,0,0,0,0,0,0,0,0,0
269,129,10680,12678,334,0,0,0,0,0,0,0,0,0,0,0
270,129,10772,12688,270,0,0,0,0,0,0,0,0,0,0,0
271,129,10712,12764,338,0,0,0,0,0,0,0,0,0,0,0
272,129,10692,12712,360,0,0,0,0,0,0,0,0,0,0,0
273,129,10758,12788,354,0,0,0,0,0,0,0,0,0,0,0
274,129,10760,12720,178,0,0,0,0,0,0,0,0,0,0,0
275,129,10712,12620,430,0,0,0,0,0,0,0,0,0,0,0
276,129,10770,12712,326,0,0,0,0,0,0,0,0,0,0,0
277,129,10742,12678,250,0,0,0,0,0,0,0,0,0,0,0
278,129,10616,12664,236,0,0,0,0,0,0,0,0,0,0,0
279,129,10702,12632,302,0,0,0,0,0,0,0,0,0,0,0
280,129,10680,12758,260,0,0,0,0,0,0,0,0,0,0,0
281,129,10782,12654,378,0,0,0,0,0,0,0,0,0,0,0
282,129,10768,12738,354,0,0,0,0,0,0,0,0,0,0,0
283,129,10722,12656,404,0,0,0,0,0,0,0,0,0,0,0
284,129,10762,12698,308,0,0,0,0,0,0,0,0,0,0,0
285,129,10786,12796,282,0,0,0,0,0,0,0,0,0,0,0
286,129,10800,12686,252,0,0,0,0,0,0,0,0,0,0,0
287,129,10678,12680,286,0,0,0,0,0,0,0,0,0,0,0
288,129,10672,12720,342,0,0,0,0,0,0,0,0,0,0,0
289,129,10742,12708,314,0,0,0,0,0,0,0,0,0,0,0
290,129,10776,12698,190,0,0,0,0,0,0,0,0,0,0,0
291,129,10746,12658,302,0,0,0,0,0,0,0,0,0,0,0
292,129,10784,12692,360,0,0,0,0,0,0,0,0,0,0,0
293,129,10764,12728,286,0,0,0,0,0,0,0,0,0,0,0
294,129,10774,12780,250,0,0,0,0,0,0,0,0,0,0,0
295,129,10748,12668,264,0,0,0,0,0,0,0,0,0,0,0
296,129,10770,12644,288,0,0,0,0,0,0,0,0,0,0,0
297,129,10726,12702,294,0,0,0,0,0,0,0,0,0,0,0
298,129,10716,12718,258,0,0,0,0,0,0,0,0,0,0,0
299,129,10700,12642,218,0,0,0,0,0,0,0,0,0,0,0
300,129,10690,12684,184,0,0,0,0,0,0,0,0,0,0,0
301,129,10778,12676,388,0,0,0,0,0,0,0,0,0,0,0
302,129,10770,12702,136,0,0,0,0,0,0,0,0,0,0,0
303,129,10876,12720,426,0,0,0,0,0,0,0,0,0,0,0
304,129,10706,12678,288,0,0,0,0,0,0,0,0,0,0,0
305,129,10770,12688,364,0,0,0,0,0,0,0,0,0,0,0
306,129,10718,12730,70,0,0,0,0,0,0,0,0,0,0,0
307,129,10746,12610,146,0,0,0,0,0,0,0,0,0,0,0
308,129,10762,12666,310,0,0,0,0,0,0,0,0,0,0,0
309,129,10744,12740,194,0,0,0,0,0,0,0,0,0,0,0
310,129,10656,12662,222,0,0,0,0,0,0,0,0,0,0,0
311,129,10810,12682,356,0,0,0,0,0,0,0,0,0,0,0
312,129,10762,12694,304,0,0,0,0,0,0,0,0,0,0,0
313,129,10668,12688,378,0,0,0,0,0,0,0,0,0,0,0
314,129,10642,12638,256,0,0,0,0,0,0,0,0,0,0,0
315,129,10720,12784,412,0,0,0,0,0,0,0,0,0,0,0
316,129,10674,12678,350,0,0,0,0,0,0,0,0,0,0,0
317,129,10716,12726,304,0,0,0,0,0,0,0,0,0,0,0
318,129,10706,12684,240,0,0,0,0,0,0,0,0,0,0,0
319,129,10736,12610,330,0,0,0,0,0,0,0,0,0,0,0
320,129,10808,12756,236,0,0,0,0,0,0,0,0,0,0,0
321,129,10716,12664,290,0,0,0,0,0,0,0,0,0,0,0
322,129,10718,12636,250,0,0,0,0,0,0,0,0,0,0,0
323,129,10772,12808,374,0,0,0,0,0,0,0,0,0,0,0
324,129,10718,12650,298,0,0,0,0,0,0,0,0,0,0,0
