ProgrNum,PacketType,AccX,AccY,AccZ,GyrX,GyrY,GyrZ,MagX,MagY,MagZ,Q0,Q1,Q2,Q3,Vbat
0,129,-968,12546,10820,0,0,0,0,0,0,0,0,0,0,0
1,129,-866,12538,10778,0,0,0,0,0,0,0,0,0,0,0
2,129,-860,12480,10742,0,0,0,0,0,0,0,0,0,0,0
3,129,-894,12596,10832,0,0,0,0,0,0,0,0,0,0,0
4,129,-898,12494,10774,0,0,0,0,0,0,0,0,0,0,0
5,129,-860,12554,10592,0,0,0,0,0,0,0,0,0,0,0
6,129,-762,12540,10744,0,0,0,0,0,0,0,0,0,0,0
7,129,-886,12608,10628,0,0,0,0,0,0,0,0,0,0,0
8,129,-880,12452,10710,0,0,0,0,0,0,0,0,0,0,0
9,129,-912,12554,10712,0,0,0,0,0,0,0,0,0,0,0
10,129,-916,12554,10738,0,0,0,0,0,0,0,0,0,0,0
11,129,-870,12568,10738,0,0,0,0,0,0,0,0,0,0,0
12,129,-902,12532,10688,0,0,0,0,0,0,0,0,0,0,0
13,129,-866,12450,10558,0,0,0,0,0,0,0,0,0,0,0
14,129,-866,12582,10716,0,0,0,0,0,0,0,0,0,0,0
15,129,-834,12638,10688,0,0,0,0,0,0,0,0,0,0,0
16,129,-828,12472,10712,0,0,0,0,0,0,0,0,0,0,0
17,129,-938,12558,10768,0,0,0,0,0,0,0,0,0,0,0
18,129,-808,12644,10734,0,0,0,0,0,0,0,0,0,0,0
19,129,-902,12518,10670,0,0,0,0,0,0,0,0,0,0,0
20,129,-932,12520,10650,0,0,0,0,0,0,0,0,0,0,0
21,129,-854,12532,10768,0,0,0,0,0,0,0,0,0,0,0
22,129,-898,12492,10846,0,0,0,0,0,0,0,0,0,0,0
23,129,-856,12440,10818,0,0,0,0,0,0,0,0,0,0,0
24,129,-868,12618,10724,0,0,0,0,0,0,0,0,0,0,0
25,129,-914,12512,10702,0,0,0,0,0,0,0,0,0,0,0
26,129,-854,12580,10708,0,0,0,0,0,0,0,0,0,0,0
27,129,-840,12574,10672,0,0,0,0,0,0,0,0,0,0,0
28,129,-858,12550,10724,0,0,0,0,0,0,0,0,0,0,0
29,129,-934,12526,10658,0,0,0,0,0,0,0,0,0,0,0
30,129,-942,12580,10742,0,0,0,0,0,0,0,0,0,0,0
31,129,-886,12472,10766,0,0,0,0,0,0,0,0,0,0,0
32,129,-904,12512,10770,0,0,0,0,0,0,0,0,0,0,0
33,129,-812,12566,10730,0,0,0,0,0,0,0,0,0,0,0
34,129,-970,12520,10770,0,0,0,0,0,0,0,0,0,0,0
35,129,-878,12560,10780,0,0,0,0,0,0,0,0,0,0,0
36,129,-924,12582,10702,0,0,0,0,0,0,0,0,0,0,0
37,129,-848,12530,10642,0,0,0,0,0,0,0,0,0,0,0
38,129,-918,12646,10690,0,0,0,0,0,0,0,0,0,0,0
39,129,-810,12538,10664,0,0,0,0,0,0,0,0,0,0,0
40,129,-896,12586,10682,0,0,0,0,0,0,0,0,0,0,0
41,129,-900,12594,10714,0,0,0,0,0,0,0,0,0,0,0
42,129,-910,12586,10818,0,0,0,0,0,0,0,0,0,0,0
43,129,-930,12508,10780,0,0,0,0,0,0,0,0,0,0,0
44,129,-862,12560,10774,0,0,0,0,0,0,0,0,0,0,0
45,129,-892,12514,10742,0,0,0,0,0,0,0,0,0,0,0
46,129,-886,12536,10732,0,0,0,0,0,0,0,0,0,0,0
47,129,-912,12490,10666,0,0,0,0,0,0,0,0,0,0,0
48,129,-828,12558,10756,0,0,0,0,0,0,0,0,0,0,0
49,129,-856,12538,10646,0,0,0,0,0,0,0,0,0,0,0
50,129,-874,12506,10660,0,0,0,0,0,0,0,0,0,0,0
51,129,-898,12528,10712,0,0,0,0,0,0,0,0,0,0,0
52,129,-902,12470,10654,0,0,0,0,0,0,0,0,0,0,0
53,129,-944,12442,10608,0,0,0,0,0,0,0,0,0,0,0
54,129,-906,12560,10642,0,0,0,0,0,0,0,0,0,0,0
55,129,-912,12464,10812,0,0,0,0,0,0,0,0,0,0,0
56,129,-824,12524,10758,0,0,0,0,0,0,0,0,0,0,0
57,129,-910,12510,10726,0,0,0,0,0,0,0,0,0,0,0
58,129,-950,12542,10700,0,0,0,0,0,0,0,0,0,0,0
59,129,-932,12534,10682,0,0,0,0,0,0,0,0,0,0,0
60,129,-938,12568,10664,0,0,0,0,0,0,0,0,0,0,0
61,129,-916,12556,10752,0,0,0,0,0,0,0,0,0,0,0
62,129,-900,12494,10800,0,0,0,0,0,0,0,0,0,0,0
63,129,-872,12506,10686,0,0,0,0,0,0,0,0,0,0,0
64,129,-896,12476,10744,0,0,0,0,0,0,0,0,0,0,0
65,129,-896,12496,10682,0,0,0,0,0,0,0,0,0,0,0
66,129,-848,12672,10674,0,0,0,0,0,0,0,0,0,0,0
67,129,-848,12566,10664,0,0,0,0,0,0,0,0,0,0,0
68,129,-914,12584,10646,0,0,0,0,0,0,0,0,0,0,0
69,129,-864,12600,10708,0,0,0,0,0,0,0,0,0,0,0
70,129,-888,12432,10564,0,0,0,0,0,0,0,0,0,0,0
71,129,-830,12500,10700,0,0,0,0,0,0,0,0,0,0,0
72,129,-892,12510,10684,0,0,0,0,0,0,0,0,0,0,0
73,129,-988,12550,10830,0,0,0,0,0,0,0,0,0,0,0
74,129,-906,12466,10692,0,0,0,0,0,0,0,0,0,0,0
75,129,-894,12606,10590,0,0,0,0,0,0,0,0,0,0,0
76,129,-882,12472,10710,0,0,0,0,0,0,0,0,0,0,0
77,129,-880,12490,10734,0,0,0,0,0,0,0,0,0,0,0
78,129,-854,12502,10776,0,0,0,0,0,0,0,0,0,0,0
79,129,-862,12474,10684,0,0,0,0,0,0,0,0,0,0,0
80,129,-946,12500,10636,0,0,0,0,0,0,0,0,0,0,0
81,129,-874,12684,10668,0,0,0,0,0,0,0,0,0,0,0
82,129,-896,12554,10778,0,0,0,0,0,0,0,0,0,0,0
83,129,-916,12514,10658,0,0,0,0,0,0,0,0,0,0,0
84,129,-870,12528,10780,0,0,0,0,0,0,0,0,0,0,0
85,129,-966,12574,10662,0,0,0,0,0,0,0,0,0,0,0
86,129,-872,12580,10866,0,0,0,0,0,0,0,0,0,0,0
87,129,-836,12726,10706,0,0,0,0,0,0,0,0,0,0,0
88,129,-936,12574,10548,0,0,0,0,0,0,0,0,0,0,0
89,129,-946,12544,10634,0,0,0,0,0,0,0,0,0,0,0
90,129,-852,12554,10774,0,0,0,0,0,0,0,0,0,0,0
91,129,-894,12574,10678,0,0,0,0,0,0,0,0,0,0,0
92,129,-900,12488,10852,0,0,0,0,0,0,0,0,0,0,0
93,129,-892,12554,10744,0,0,0,0,0,0,0,0,0,0,0
94,129,-974,12498,10694,0,0,0,0,0,0,0,0,0,0,0
95,129,-940,12562,10814,0,0,0,0,0,0,0,0,0,0,0
96,129,-910,12588,10668,0,0,0,0,0,0,0,0,0,0,0
97,129,-872,12496,10786,0,0,0,0,0,0,0,0,0,0,0
98,129,-882,12472,10636,0,0,0,0,0,0,0,0,0,0,0
99,129,-896,12528,10722,0,0,0,0,0,0,0,0,0,0,0
100,129,-942,12582,10608,0,0,0,0,0,0,0,0,0,0,0
101,129,-844,12520,10824,0,0,0,0,0,0,0,0,0,0,0
102,129,-940,12588,10614,0,0,0,0,0,0,0,0,0,0,0
103,129,-902,12592,10598,0,0,0,0,0,0,0,0,0,0,0
104,129,-918,12496,10770,0,0,0,0,0,0,0,0,0,0,0
105,129,-816,12606,10706,0,0,0,0,0,0,0,0,0,0,0
106,129,-840,12536,10748,0,0,0,0,0,0,0,0,0,0,0
107,129,-882,12544,10812,0,0,0,0,0,0,0,0,0,0,0
108,129,-858,12554,10750,0,0,0,0,0,0,0,0,0,0,0
109,129,-854,12500,10660,0,0,0,0,0,0,0,0,0,0,0
110,129,-928,12550,10842,0,0,0,0,0,0,0,0,0,0,0
111,129,-848,12620,10818,0,0,0,0,0,0,0,0,0,0,0
112,129,-898,12446,10718,0,0,0,0,0,0,0,0,0,0,0
113,129,-908,12400,10828,0,0,0,0,0,0,0,0,0,0,0
114,129,-842,12632,10676,0,0,0,0,0,0,0,0,0,0,0
115,129,-886,12560,10630,0,0,0,0,0,0,0,0,0,0,0
116,129,-922,12540,10710,0,0,0,0,0,0,0,0,0,0,0
117,129,-852,12600,10688,0,0,0,0,0,0,0,0,0,0,0
118,129,-922,12492,10750,0,0,0,0,0,0,0,0,0,0,0
119,129,-912,12540,10658,0,0,0,0,0,0,0,0,0,0,0
120,129,-848,12654,10638,0,0,0,0,0,0,0,0,0,0,0
121,129,-936,12464,10484,0,0,0,0,0,0,0,0,0,0,0
122,129,-906,12478,10664,0,0,0,0,0,0,0,0,0,0,0
123,129,-856,12526,10646,0,0,0,0,0,0,0,0,0,0,0
124,129,-806,12572,10736,0,0,0,0,0,0,0,0,0,0,0
125,129,-910,12546,10818,0,0,0,0,0,0,0,0,0,0,0
126,129,-812,12564,10754,0,0,0,0,0,0,0,0,0,0,0
127,129,-904,12458,10670,0,0,0,0,0,0,0,0,0,0,0
128,129,-956,12512,10564,0,0,0,0,0,0,0,0,0,0,0
129,129,-908,12496,10692,0,0,0,0,0,0,0,0,0,0,0
130,129,-866,12512,10716,0,0,0,0,0,0,0,0,0,0,0
131,129,-922,12588,10812,0,0,0,0,0,0,0,0,0,0,0
132,129,-918,12454,10830,0,0,0,0,0,0,0,0,0,0,0
133,129,-876,12518,10672,0,0,0,0,0,0,0,0,0,0,0
134,129,-912,12576,10620,0,0,0,0,0,0,0,0,0,0,0
135,129,-834,12632,10742,0,0,0,0,0,0,0,0,0,0,0
136,129,-922,12550,10772,0,0,0,0,0,0,0,0,0,0,0
137,129,-868,12474,10672,0,0,0,0,0,0,0,0,0,0,0
138,129,-850,12628,10716,0,0,0,0,0,0,0,0,0,0,0
139,129,-940,12566,10738,0,0,0,0,0,0,0,0,0,0,0
140,129,-876,12576,10736,0,0,0,0,0,0,0,0,0,0,0
141,129,-900,12622,10570,0,0,0,0,0,0,0,0,0,0,0
142,129,-960,12530,10604,0,0,0,0,0,0,0,0,0,0,0
143,129,-864,12604,10562,0,0,0,0,0,0,0,0,0,0,0
144,129,-878,12564,10654,0,0,0,0,0,0,0,0,0,0,0
145,129,-876,12626,10698,0,0,0,0,0,0,0,0,0,0,0
146,129,-918,12434,10714,0,0,0,0,0,0,0,0,0,0,0
147,129,-890,12556,10688,0,0,0,0,0,0,0,0,0,0,0
148,129,-890,12542,10862,0,0,0,0,0,0,0,0,0,0,0
149,129,-874,12496,10754,0,0,0,0,0,0,0,0,0,0,0
150,129,-874,12570,10828,0,0,0,0,0,0,0,0,0,0,0
151,129,-820,12602,10832,0,0,0,0,0,0,0,0,0,0,0
152,129,-840,12450,10730,0,0,0,0,0,0,0,0,0,0,0
153,129,-808,12628,10674,0,0,0,0,0,0,0,0,0,0,0
154,129,-856,12618,10824,0,0,0,0,0,0,0,0,0,0,0
155,129,-870,12510,10742,0,0,0,0,0,0,0,0,0,0,0
156,129,-836,12560,10688,0,0,0,0,0,0,0,0,0,0,0
157,129,-918,12504,10766,0,0,0,0,0,0,0,0,0,0,0
158,129,-884,12606,10740,0,0,0,0,0,0,0,0,0,0,0
159,129,-822,12504,10730,0,0,0,0,0,0,0,0,0,0,0
160,129,-828,12544,10622,0,0,0,0,0,0,0,0,0,0,0
161,129,-936,12512,10750,0,0,0,0,0,0,0,0,0,0,0
162,129,-948,12544,10606,0,0,0,0,0,0,0,0,0,0,0
163,129,-882,12542,10670,0,0,0,0,0,0,0,0,0,0,0
164,129,-924,12528,10794,0,0,0,0,0,0,0,0,0,0,0
165,129,-866,12564,10594,0,0,0,0,0,0,0,0,0,0,0
166,129,-934,12444,10594,0,0,0,0,0,0,0,0,0,0,0
167,129,-940,12446,10646,0,0,0,0,0,0,0,0,0,0,0
168,129,-870,12498,10700,0,0,0,0,0,0,0,0,0,0,0
169,129,-830,12440,10682,0,0,0,0,0,0,0,0,0,0,0
170,129,-874,12528,10750,0,0,0,0,0,0,0,0,0,0,0
171,129,-944,12574,10752,0,0,0,0,0,0,0,0,0,0,0
172,129,-872,12516,10764,0,0,0,0,0,0,0,0,0,0,0
173,129,-902,12600,10744,0,0,0,0,0,0,0,0,0,0,0
174,129,-818,12594,10790,0,0,0,0,0,0,0,0,0,0,0
175,129,-912,12574,10630,0,0,0,0,0,0,0,0,0,0,0
176,129,-880,12498,10726,0,0,0,0,0,0,0,0,0,0,0
177,129,-890,12566,10562,0,0,0,0,0,0,0,0,0,0,0
178,129,-876,12422,10642,0,0,0,0,0,0,0,0,0,0,0
179,129,-880,12586,10652,0,0,0,0,0,0,0,0,0,0,0
180,129,-872,12518,10748,0,0,0,0,0,0,0,0,0,0,0
181,129,-840,12514,10792,0,0,0,0,0,0,0,0,0,0,0
182,129,-934,12522,10558,0,0,0,0,0,0,0,0,0,0,0
183,129,-836,12540,10700,0,0,0,0,0,0,0,0,0,0,0
184,129,-906,12440,10756,0,0,0,0,0,0,0,0,0,0,0
185,129,-976,12524,10686,0,0,0,0,0,0,0,0,0,0,0
186,129,-908,12630,10726,0,0,0,0,0,0,0,0,0,0,0
187,129,-912,12516,10664,0,0,0,0,0,0,0,0,0,0,0
188,129,-816,12546,10712,0,0,0,0,0,0,0,0,0,0,0
189,129,-816,12660,10620,0,0,0,0,0,0,0,0,0,0,0
190,129,-894,12534,10678,0,0,0,0,0,0,0,0,0,0,0
191,129,-886,12552,10692,0,0,0,0,0,0,0,0,0,0,0
192,129,-874,12606,10688,0,0,0,0,0,0,0,0,0,0,0
193,129,-866,12546,10664,0,0,0,0,0,0,0,0,0,0,0
194,129,-912,12450,10726,0,0,0,0,0,0,0,0,0,0,0
195,129,-870,12558,10602,0,0,0,0,0,0,0,0,0,0,0
196,129,-908,12536,10664,0,0,0,0,0,0,0,0,0,0,0
197,129,-990,12528,10448,0,0,0,0,0,0,0,0,0,0,0
198,129,-884,12626,10752,0,0,0,0,0,0,0,0,0,0,0
199,129,-900,12574,10622,0,0,0,0,0,0,0,0,0,0,0
200,129,-922,12548,10694,0,0,0,0,0,0,0,0,0,0,0
201,129,-914,12578,10700,0,0,0,0,0,0,0,0,0,0,0
202,129,-884,12592,10764,0,0,0,0,0,0,0,0,0,0,0
203,129,-906,12620,10750,0,0,0,0,0,0,0,0,0,0,0
204,129,-812,12662,10834,0,0,0,0,0,0,0,0,0,0,0
205,129,-878,12520,10662,0,0,0,0,0,0,0,0,0,0,0
206,129,-874,12580,10672,0,0,0,0,0,0,0,0,0,0,0
207,129,-864,12568,10786,0,0,0,0,0,0,0,0,0,0,0
208,129,-886,12508,10836,0,0,0,0,0,0,0,0,0,0,0
209,129,-838,12542,10624,0,0,0,0,0,0,0,0,0,0,0
210,129,-878,12604,10850,0,0,0,0,0,0,0,0,0,0,0
211,129,-908,12508,10776,0,0,0,0,0,0,0,0,0,0,0
212,129,-922,12532,10606,0,0,0,0,0,0,0,0,0,0,0
213,129,-878,12578,10558,0,0,0,0,0,0,0,0,0,0,0
214,129,-866,12520,10720,0,0,0,0,0,0,0,0,0,0,0
215,129,-858,12586,10710,0,0,0,0,0,0,0,0,0,0,0
216,129,-900,12558,10628,0,0,0,0,0,0,0,0,0,0,0
217,129,-864,12508,10664,0,0,0,0,0,0,0,0,0,0,0
218,129,-910,12612,10794,0,0,0,0,0,0,0,0,0,0,0
219,129,-856,12554,10632,0,0,0,0,0,0,0,0,0,0,0
220,129,-918,12552,10572,0,0,0,0,0,0,0,0,0,0,0
221,129,-900,12536,10640,0,0,0,0,0,0,0,0,0,0,0
222,129,-864,12558,10646,0,0,0,0,0,0,0,0,0,0,0
223,129,-916,12528,10602,0,0,0,0,0,0,0,0,0,0,0
224,129,-916,12574,10788,0,0,0,0,0,0,0,0,0,0,0
225,129,-896,12554,10666,0,0,0,0,0,0,0,0,0,0,0
226,129,-880,12484,10760,0,0,0,0,0,0,0,0,0,0,0
227,129,-808,12526,10650,0,0,0,0,0,0,0,0,0,0,0
228,129,-914,12542,10778,0,0,0,0,0,0,0,0,0,0,0
229,129,-886,12558,10652,0,0,0,0,0,0,0,0,0,0,0
230,129,-890,12614,10672,0,0,0,0,0,0,0,0,0,0,0
231,129,-808,12516,10686,0,0,0,0,0,0,0,0,0,0,0
232,129,-870,12520,10664,0,0,0,0,0,0,0,0,0,0,0
233,129,-900,12582,10626,0,0,0,0,0,0,0,0,0,0,0
234,129,-890,12612,10696,0,0,0,0,0,0,0,0,0,0,0
235,129,-946,12514,10630,0,0,0,0,0,0,0,0,0,0,0
236,129,-894,12594,10710,0,0,0,0,0,0,0,0,0,0,0
237,129,-868,12556,10738,0,0,0,0,0,0,0,0,0,0,0
238,129,-958,12556,10740,0,0,0,0,0,0,0,0,0,0,0
239,129,-852,12544,10722,0,0,0,0,0,0,0,0,0,0,0
240,129,-964,12670,10662,0,0,0,0,0,0,0,0,0,0,0
241,129,-852,12548,10730,0,0,0,0,0,0,0,0,0,0,0
242,129,-902,12516,10730,0,0,0,0,0,0,0,0,0,0,0
243,129,-906,12602,10610,0,0,0,0,0,0,0,0,0,0,0
244,129,-904,12608,10730,0,0,0,0,0,0,0,0,0,0,0
245,129,-862,12510,10676,0,0,0,0,0,0,0,0,0,0,0
246,129,-814,12586,10730,0,0,0,0,0,0,0,0,0,0,0
247,129,-882,12540,10666,0,0,0,0,0,0,0,0,0,0,0
248,129,-896,12484,10740,0,0,0,0,0,0,0,0,0,0,0
249,129,-826,12578,10676,0,0,0,0,0,0,0,0,0,0,0
250,129,-998,12516,10736,0,0,0,0,0,0,0,0,0,0,0
251,129,-886,12452,10706,0,0,0,0,0,0,0,0,0,0,0
252,129,-830,12566,10626,0,0,0,0,0,0,0,0,0,0,0
253,129,-920,12542,10646,0,0,0,0,0,0,0,0,0,0,0
254,129,-912,12578,10634,0,0,0,0,0,0,0,0,0,0,0
255,129,-838,12562,10712,0,0,0,0,0,0,0,0,0,0,0
256,129,-942,12518,10838,0,0,0,0,0,0,0,0,0,0,0
257,129,-918,12544,10666,0,0,0,0,0,0,0,0,0,0,0
258,129,-912,12474,10836,0,0,0,0,0,0,0,0,0,0,0
259,129,-864,12498,10634,0,0,0,0,0,0,0,0,0,0,0
260,129,-914,12522,10624,0,0,0,0,0,0,0,0,0,0,0
261,129,-830,12612,10708,0,0,0,0,0,0,0,0,0,0,0
262,129,-896,12484,10808,0,0,0,0,0,0,0,0,0,0,0
263,129,-834,12516,10558,0,0,0,0,0,0,0,0,0,0,0
264,129,-848,12598,10788,0,0,0,0,0,0,0,0,0,0,0
265,129,-860,12562,10670,0,0,0,0,0,0,0,0,0,0,0
266,129,-878,12530,10660,0,0,0,0,0,0,0,0,0,0,0
267,129,-920,12674,10770,0,0,0,0,0,0,0,0,0,0,0
268,129,-856,12566,10708,0,0,0,0,0,0,0,0,0,0,0
269,129,-788,12442,10742,0,0,0,0,0,0,0,0,0,0,0
270,129,-896,12568,10686,0,0,0,0,0,0,0,0,0,0,0
271,129,-924,12480,10678,0,0,0,0,0,0,0,0,0,0,0
272,129,-920,12546,10824,0,0,0,0,0,0,0,0,0,0,0
273,129,-948,12580,10664,0,0,0,0,0,0,0,0,0,0,0
274,129,-938,12544,10712,0,0,0,0,0,0,0,0,0,0,0
275,129,-922,12528,10572,0,0,0,0,0,0,0,0,0,0,0
276,129,-870,12582,10742,0,0,0,0,0,0,0,0,0,0,0
277,129,-966,12494,10632,0,0,0,0,0,0,0,0,0,0,0
278,129,-970,12502,10684,0,0,0,0,0,0,0,0,0,0,0
279,129,-858,12632,10780,0,0,0,0,0,0,0,0,0,0,0
280,129,-1000,12502,10714,0,0,0,0,0,0,0,0,0,0,0
281,129,-884,12520,10728,0,0,0,0,0,0,0,0,0,0,0
282,129,-904,12576,10684,0,0,0,0,0,0,0,0,0,0,0
283,129,-862,12492,10716,0,0,0,0,0,0,0,0,0,0,0
284,129,-896,12468,10580,0,0,0,0,0,0,0,0,0,0,0
285,129,-886,12596,10670,0,0,0,0,0,0,0,0,0,0,0
286,129,-846,12474,10762,0,0,0,0,0,0,0,0,0,0,0
287,129,-908,12578,10762,0,0,0,0,0,0,0,0,0,0,0
288,129,-848,12488,10700,0,0,0,0,0,0,0,0,0,0,0
289,129,-840,12550,10772,0,0,0,0,0,0,0,0,0,0,0
290,129,-868,12480,10848,0,0,0,0,0,0,0,0,0,0,0
291,129,-850,12614,10698,0,0,0,0,0,0,0,0,0,0,0
292,129,-908,12520,10760,0,0,0,0,0,0,0,0,0,0,0
293,129,-890,12470,10540,0,0,0,0,0,0,0,0,0,0,0
294,129,-908,12564,10746,0,0,0,0,0,0,0,0,0,0,0
295,129,-942,12608,10764,0,0,0,0,0,0,0,0,0,0,0
296,129,-858,12554,10750,0,0,0,0,0,0,0,0,0,0,0
297,129,-852,12556,10682,0,0,0,0,0,0,0,0,0,0,0
298,129,-876,12466,10626,0,0,0,0,0,0,0,0,0,0,0
299,129,-902,12538,10526,0,0,0,0,0,0,0,0,0,0,0
300,129,-800,12542,10614,0,0,0,0,0,0,0,0,0,0,0
301,129,-930,12496,10632,0,0,0,0,0,0,0,0,0,0,0
302,129,-902,12578,10704,0,0,0,0,0,0,0,0,0,0,0
303,129,-822,12524,10682,0,0,0,0,0,0,0,0,0,0,0
304,129,-904,12576,10754,0,0,0,0,0,0,0,0,0,0,0
305,129,-910,12520,10632,0,0,0,0,0,0,0,0,0,0,0
306,129,-836,12658,10718,0,0,0,0,0,0,0,0,0,0,0
307,129,-850,12562,10800,0,0,0,0,0,0,0,0,0,0,0
308,129,-950,12506,10642,0,0,0,0,0,0,0,0,0,0,0
309,129,-886,12610,10590,0,0,0,0,0,0,0,0,0,0,0
310,129,-882,12538,10658,0,0,0,0,0,0,0,0,0,0,0
311,129,-846,12488,10614,0,0,0,0,0,0,0,0,0,0,0
312,129,-958,12562,10804,0,0,0,0,0,0,0,0,0,0,0
313,129,-952,12566,10660,0,0,0,0,0,0,0,0,0,0,0
314,129,-832,12550,10692,0,0,0,0,0,0,0,0,0,0,0
315,129,-872,12530,10690,0,0,0,0,0,0,0,0,0,0,0
316,129,-914,12608,10684,0,0,0,0,0,0,0,0,0,0,0
317,129,-934,12510,10616,0,0,0,0,0,0,0,0,0,0,0
318,129,-860,12590,10722,0,0,0,0,0,0,0,0,0,0,0
319,129,-882,12566,10602,0,0,0,0,0,0,0,0,0,0,0
320,129,-880,12512,10840,0,0,0,0,0,0,0,0,0,0,0
321,129,-880,12592,10596,0,0,0,0,0,0,0,0,0,0,0
322,129,-842,12536,10752,0,0,0,0,0,0,0,0,0,0,0
323,129,-892,12448,10784,0,0,0,0,0,0,0,0,0,0,0
324,129,-810,12562,10696,0,0,0,0,0,0,0,0,0,0,0
325,129,-840,12482,10660,0,0,0,0,0,0,0,0,0,0,0
326,129,-826,12472,10740,0,0,0,0,0,0,0,0,0,0,0
327,129,-818,12622,10642,0,0,0,0,0,0,0,0,0,0,0
328,129,-928,12494,10634,0,0,0,0,0,0,0,0,0,0,0
329,129,-944,12462,10730,0,0,0,0,0,0,0,0,0,0,0
330,129,-840,12654,10748,0,0,0,0,0,0,0,0,0,0,0
331,129,-878,12442,10536,0,0,0,0,0,0,0,0,0,0,0
332,129,-896,12456,10708,0,0,0,0,0,0,0,0,0,0,0
333,129,-840,12598,10734,0,0,0,0,0,0,0,0,0,0,0
334,129,-922,12510,10666,0,0,0,0,0,0,0,0,0,0,0
335,129,-954,12472,10646,0,0,0,0,0,0,0,0,0,0,0
336,129,-936,12548,10534,0,0,0,0,0,0,0,0,0,0,0
337,129,-842,12568,10732,0,0,0,0,0,0,0,0,0,0,0
338,129,-872,12572,10756,0,0,0,0,0,0,0,0,0,0,0
339,129,-864,12578,10712,0,0,0,0,0,0,0,0,0,0,0
340,129,-868,12528,10742,0,0,0,0,0,0,0,0,0,0,0
341,129,-912,12580,10530,0,0,0,0,0,0,0,0,0,0,0
342,129,-854,12562,10632,0,0,0,0,0,0,0,0,0,0,0
343,129,-858,12514,10732,0,0,0,0,0,0,0,0,0,0,0
344,129,-842,12462,10656,0,0,0,0,0,0,0,0,0,0,0
345,129,-860,12634,10782,0,0,0,0,0,0,0,0,0,0,0
346,129,-880,12564,10722,0,0,0,0,0,0,0,0,0,0,0
347,129,-954,12466,10736,0,0,0,0,0,0,0,0,0,0,0
348,129,-898,12560,10636,0,0,0,0,0,0,0,0,0,0,0
349,129,-876,12548,10650,0,0,0,0,0,0,0,0,0,0,0
350,129,-884,12556,10850,0,0,0,0,0,0,0,0,0,0,0
351,129,-836,12468,10732,0,0,0,0,0,0,0,0,0,0,0
352,129,-900,12586,10626,0,0,0,0,0,0,0,0,0,0,0
353,129,-976,12610,10720,0,0,0,0,0,0,0,0,0,0,0
354,129,-828,12640,10704,0,0,0,0,0,0,0,0,0,0,0
355,129,-850,12650,10672,0,0,0,0,0,0,0,0,0,0,0
356,129,-912,12566,10768,0,0,0,0,0,0,0,0,0,0,0
357,129,-820,12536,10780,0,0,0,0,0,0,0,0,0,0,0
358,129,-920,12634,10750,0,0,0,0,0,0,0,0,0,0,0
359,129,-858,12592,10698,0,0,0,0,0,0,0,0,0,0,0
360,129,-902,12622,10878,0,0,0,0,0,0,0,0,0,0,0
361,129,-830,12528,10644,0,0,0,0,0,0,0,0,0,0,0
362,129,-840,12516,10716,0,0,0,0,0,0,0,0,0,0,0
363,129,-900,12594,10732,0,0,0,0,0,0,0,0,0,0,0
364,129,-944,12544,10628,0,0,0,0,0,0,0,0,0,0,0
365,129,-882,12512,10662,0,0,0,0,0,0,0,0,0,0,0
366,129,-910,12558,10816,0,0,0,0,0,0,0,0,0,0,0
367,129,-778,12636,10720,0,0,0,0,0,0,0,0,0,0,0
368,129,-868,12434,10612,0,0,0,0,0,0,0,0,0,0,0
369,129,-838,12568,10758,0,0,0,0,0,0,0,0,0,0,0
370,129,-934,12562,10646,0,0,0,0,0,0,0,0,0,0,0
371,129,-832,12496,10696,0,0,0,0,0,0,0,0,0,0,0
