ProgrNum,PacketType,AccX,AccY,AccZ,GyrX,GyrY,GyrZ,MagX,MagY,MagZ,Q0,Q1,Q2,Q3,Vbat
0,129,-1144,16280,3112,0,0,0,0,0,0,0,0,0,0,0
1,129,-1228,16370,3120,0,0,0,0,0,0,0,0,0,0,0
2,129,-1206,16336,2978,0,0,0,0,0,0,0,0,0,0,0
3,129,-1140,16292,3068,0,0,0,0,0,0,0,0,0,0,0
4,129,-1116,16322,2974,0,0,0,0,0,0,0,0,0,0,0
5,129,-1168,16348,3128,0,0,0,0,0,0,0,0,0,0,0
6,129,-1134,16280,3080,0,0,0,0,0,0,0,0,0,0,0
7,129,-1196,16390,3052,0,0,0,0,0,0,0,0,0,0,0
8,129,-1156,16326,3032,0,0,0,0,0,0,0,0,0,0,0
9,129,-1274,16310,3046,0,0,0,0,0,0,0,0,0,0,0
10,129,-1222,16356,3048,0,0,0,0,0,0,0,0,0,0,0
11,129,-1208,16340,2982,0,0,0,0,0,0,0,0,0,0,0
12,129,-1224,16386,3148,0,0,0,0,0,0,0,0,0,0,0
13,129,-1154,16296,3064,0,0,0,0,0,0,0,0,0,0,0
14,129,-1234,16240,2864,0,0,0,0,0,0,0,0,0,0,0
15,129,-1182,16384,2934,0,0,0,0,0,0,0,0,0,0,0
16,129,-1174,16332,3036,0,0,0,0,0,0,0,0,0,0,0
17,129,-1260,16286,3078,0,0,0,0,0,0,0,0,0,0,0
18,129,-1178,16404,3108,0,0,0,0,0,0,0,0,0,0,0
19,129,-1148,16404,3090,0,0,0,0,0,0,0,0,0,0,0
20,129,-1138,16346,3120,0,0,0,0,0,0,0,0,0,0,0
21,129,-1210,16484,3022,0,0,0,0,0,0,0,0,0,0,0
22,129,-1194,16446,3054,0,0,0,0,0,0,0,0,0,0,0
23,129,-1226,16332,3114,0,0,0,0,0,0,0,0,0,0,0
24,129,-1180,16422,3154,0,0,0,0,0,0,0,0,0,0,0
25,129,-1202,16378,3254,0,0,0,0,0,0,0,0,0,0,0
26,129,-1226,16352,3054,0,0,0,0,0,0,0,0,0,0,0
27,129,-1216,16324,3154,0,0,0,0,0,0,0,0,0,0,0
28,129,-1152,16386,3072,0,0,0,0,0,0,0,0,0,0,0
29,129,-1272,16306,3074,0,0,0,0,0,0,0,0,0,0,0
30,129,-1286,16418,3082,0,0,0,0,0,0,0,0,0,0,0
31,129,-1178,16238,3198,0,0,0,0,0,0,0,0,0,0,0
32,129,-1250,16330,3066,0,0,0,0,0,0,0,0,0,0,0
33,129,-1262,16416,3000,0,0,0,0,0,0,0,0,0,0,0
34,129,-1222,16366,2996,0,0,0,0,0,0,0,0,0,0,0
35,129,-1206,16280,3144,0,0,0,0,0,0,0,0,0,0,0
36,129,-1172,16428,3030,0,0,0,0,0,0,0,0,0,0,0
37,129,-1170,16232,3030,0,0,0,0,0,0,0,0,0,0,0
38,129,-1226,16328,3052,0,0,0,0,0,0,0,0,0,0,0
39,129,-1190,16368,3174,0,0,0,0,0,0,0,0,0,0,0
40,129,-1150,16286,3074,0,0,0,0,0,0,0,0,0,0,0
41,129,-1246,16368,3036,0,0,0,0,0,0,0,0,0,0,0
42,129,-1172,16300,2988,0,0,0,0,0,0,0,0,0,0,0
43,129,-1148,16336,2950,0,0,0,0,0,0,0,0,0,0,0
44,129,-1266,16318,3104,0,0,0,0,0,0,0,0,0,0,0
45,129,-1156,16394,3108,0,0,0,0,0,0,0,0,0,0,0
46,129,-1190,16472,2966,0,0,0,0,0,0,0,0,0,0,0
47,129,-1190,16312,3140,0,0,0,0,0,0,0,0,0,0,0
48,129,-1160,16334,3072,0,0,0,0,0,0,0,0,0,0,0
49,129,-1144,16326,3044,0,0,0,0,0,0,0,0,0,0,0
50,129,-1204,16352,3010,0,0,0,0,0,0,0,0,0,0,0
51,129,-1258,16484,3118,0,0,0,0,0,0,0,0,0,0,0
52,129,-1146,16338,3008,0,0,0,0,0,0,0,0,0,0,0
53,129,-1144,16248,3200,0,0,0,0,0,0,0,0,0,0,0
54,129,-1168,16392,3096,0,0,0,0,0,0,0,0,0,0,0
55,129,-1240,16334,3028,0,0,0,0,0,0,0,0,0,0,0
56,129,-1170,16316,3140,0,0,0,0,0,0,0,0,0,0,0
57,129,-1202,16296,3066,0,0,0,0,0,0,0,0,0,0,0
58,129,-1162,16308,3124,0,0,0,0,0,0,0,0,0,0,0
59,129,-1212,16280,3042,0,0,0,0,0,0,0,0,0,0,0
60,129,-1168,16346,3028,0,0,0,0,0,0,0,0,0,0,0
61,129,-1162,16370,2990,0,0,0,0,0,0,0,0,0,0,0
62,129,-1130,16352,3088,0,0,0,0,0,0,0,0,0,0,0
63,129,-1154,16356,3132,0,0,0,0,0,0,0,0,0,0,0
64,129,-1250,16264,3012,0,0,0,0,0,0,0,0,0,0,0
65,129,-1162,16278,3100,0,0,0,0,0,0,0,0,0,0,0
66,129,-1224,16418,3152,0,0,0,0,0,0,0,0,0,0,0
67,129,-1152,16324,3236,0,0,0,0,0,0,0,0,0,0,0
68,129,-1126,16358,3242,0,0,0,0,0,0,0,0,0,0,0
69,129,-1156,16372,3176,0,0,0,0,0,0,0,0,0,0,0
70,129,-1234,16316,3050,0,0,0,0,0,0,0,0,0,0,0
71,129,-1148,16400,3032,0,0,0,0,0,0,0,0,0,0,0
72,129,-1180,16370,3052,0,0,0,0,0,0,0,0,0,0,0
73,129,-1222,16288,3100,0,0,0,0,0,0,0,0,0,0,0
74,129,-1164,16356,3038,0,0,0,0,0,0,0,0,0,0,0
75,129,-1186,16330,3102,0,0,0,0,0,0,0,0,0,0,0
76,129,-1198,16354,2996,0,0,0,0,0,0,0,0,0,0,0
77,129,-1232,16384,3076,0,0,0,0,0,0,0,0,0,0,0
78,129,-1220,16252,3038,0,0,0,0,0,0,0,0,0,0,0
79,129,-1224,16284,3204,0,0,0,0,0,0,0,0,0,0,0
80,129,-1208,16302,3036,0,0,0,0,0,0,0,0,0,0,0
81,129,-1188,16406,3146,0,0,0,0,0,0,0,0,0,0,0
82,129,-1166,16252,2940,0,0,0,0,0,0,0,0,0,0,0
83,129,-1158,16406,3042,0,0,0,0,0,0,0,0,0,0,0
84,129,-1228,16254,3058,0,0,0,0,0,0,0,0,0,0,0
85,129,-1174,16324,3116,0,0,0,0,0,0,0,0,0,0,0
86,129,-1232,16464,3030,0,0,0,0,0,0,0,0,0,0,0
87,129,-1158,16168,3042,0,0,0,0,0,0,0,0,0,0,0
88,129,-1216,16310,3060,0,0,0,0,0,0,0,0,0,0,0
89,129,-1204,16380,3084,0,0,0,0,0,0,0,0,0,0,0
90,129,-1182,16306,3014,0,0,0,0,0,0,0,0,0,0,0
91,129,-1188,16370,2948,0,0,0,0,0,0,0,0,0,0,0
92,129,-1146,16320,3072,0,0,0,0,0,0,0,0,0,0,0
93,129,-1224,16384,2914,0,0,0,0,0,0,0,0,0,0,0
94,129,-1206,16356,3018,0,0,0,0,0,0,0,0,0,0,0
95,129,-1212,16374,3010,0,0,0,0,0,0,0,0,0,0,0
96,129,-1146,16326,3062,0,0,0,0,0,0,0,0,0,0,0
97,129,-1200,16354,3126,0,0,0,0,0,0,0,0,0,0,0
98,129,-1202,16388,3088,0,0,0,0,0,0,0,0,0,0,0
99,129,-1198,16284,3098,0,0,0,0,0,0,0,0,0,0,0
100,129,-1216,16356,2954,0,0,0,0,0,0,0,0,0,0,0
101,129,-1186,16328,3120,0,0,0,0,0,0,0,0,0,0,0
102,129,-1224,16382,3106,0,0,0,0,0,0,0,0,0,0,0
103,129,-1222,16304,3172,0,0,0,0,0,0,0,0,0,0,0
104,129,-1154,16432,3184,0,0,0,0,0,0,0,0,0,0,0
105,129,-1202,16334,3160,0,0,0,0,0,0,0,0,0,0,0
106,129,-1196,16282,3090,0,0,0,0,0,0,0,0,0,0,0
107,129,-1118,16396,3072,0,0,0,0,0,0,0,0,0,0,0
108,129,-1140,16324,3024,0,0,0,0,0,0,0,0,0,0,0
109,129,-1188,16322,3204,0,0,0,0,0,0,0,0,0,0,0
110,129,-1126,16406,3064,0,0,0,0,0,0,0,0,0,0,0
111,129,-1208,16392,3000,0,0,0,0,0,0,0,0,0,0,0
112,129,-1238,16312,3132,0,0,0,0,0,0,0,0,0,0,0
113,129,-1142,16336,3134,0,0,0,0,0,0,0,0,0,0,0
114,129,-1138,16252,3060,0,0,0,0,0,0,0,0,0,0,0
115,129,-1254,16248,3146,0,0,0,0,0,0,0,0,0,0,0
116,129,-1216,16354,3066,0,0,0,0,0,0,0,0,0,0,0
117,129,-1212,16240,2992,0,0,0,0,0,0,0,0,0,0,0
118,129,-1222,16264,2976,0,0,0,0,0,0,0,0,0,0,0
119,129,-1190,16414,2964,0,0,0,0,0,0,0,0,0,0,0
120,129,-1208,16316,3070,0,0,0,0,0,0,0,0,0,0,0
121,129,-1170,16318,3128,0,0,0,0,0,0,0,0,0,0,0
122,129,-1224,16356,2974,0,0,0,0,0,0,0,0,0,0,0
123,129,-1194,16342,3048,0,0,0,0,0,0,0,0,0,0,0
124,129,-1180,16406,3076,0,0,0,0,0,0,0,0,0,0,0
125,129,-1134,16426,3234,0,0,0,0,0,0,0,0,0,0,0
126,129,-1226,16328,3092,0,0,0,0,0,0,0,0,0,0,0
127,129,-1164,16336,2996,0,0,0,0,0,0,0,0,0,0,0
128,129,-1170,16312,3128,0,0,0,0,0,0,0,0,0,0,0
129,129,-1214,16356,3074,0,0,0,0,0,0,0,0,0,0,0
130,129,-1178,16288,3054,0,0,0,0,0,0,0,0,0,0,0
131,129,-1218,16344,3060,0,0,0,0,0,0,0,0,0,0,0
132,129,-1158,16358,3160,0,0,0,0,0,0,0,0,0,0,0
133,129,-1204,16348,3110,0,0,0,0,0,0,0,0,0,0,0
134,129,-1218,16360,2994,0,0,0,0,0,0,0,0,0,0,0
135,129,-1232,16342,3014,0,0,0,0,0,0,0,0,0,0,0
136,129,-1240,16344,3136,0,0,0,0,0,0,0,0,0,0,0
137,129,-1194,16430,3138,0,0,0,0,0,0,0,0,0,0,0
138,129,-1230,16284,3036,0,0,0,0,0,0,0,0,0,0,0
139,129,-1182,16374,3030,0,0,0,0,0,0,0,0,0,0,0
140,129,-1190,16348,3074,0,0,0,0,0,0,0,0,0,0,0
141,129,-1184,16276,3158,0,0,0,0,0,0,0,0,0,0,0
142,129,-1174,16368,3048,0,0,0,0,0,0,0,0,0,0,0
143,129,-1210,16324,3126,0,0,0,0,0,0,0,0,0,0,0
144,129,-1268,16318,3022,0,0,0,0,0,0,0,0,0,0,0
145,129,-1234,16296,3072,0,0,0,0,0,0,0,0,0,0,0
146,129,-1218,16388,3024,0,0,0,0,0,0,0,0,0,0,0
147,129,-1236,16292,3026,0,0,0,0,0,0,0,0,0,0,0
148,129,-1204,16340,3070,0,0,0,0,0,0,0,0,0,0,0
149,129,-1142,16416,2974,0,0,0,0,0,0,0,0,0,0,0
150,129,-1118,16312,3110,0,0,0,0,0,0,0,0,0,0,0
151,129,-1182,16410,3042,0,0,0,0,0,0,0,0,0,0,0
152,129,-1166,16368,3106,0,0,0,0,0,0,0,0,0,0,0
153,129,-1184,16242,3122,0,0,0,0,0,0,0,0,0,0,0
154,129,-1166,16384,3100,0,0,0,0,0,0,0,0,0,0,0
155,129,-1230,16344,2954,0,0,0,0,0,0,0,0,0,0,0
156,129,-1204,16318,3006,0,0,0,0,0,0,0,0,0,0,0
157,129,-1124,16360,3148,0,0,0,0,0,0,0,0,0,0,0
158,129,-1198,16296,2956,0,0,0,0,0,0,0,0,0,0,0
159,129,-1318,16242,3006,0,0,0,0,0,0,0,0,0,0,0
160,129,-1194,16400,3000,0,0,0,0,0,0,0,0,0,0,0
161,129,-1168,16356,3238,0,0,0,0,0,0,0,0,0,0,0
162,129,-1242,16310,3030,0,0,0,0,0,0,0,0,0,0,0
163,129,-1116,16370,3042,0,0,0,0,0,0,0,0,0,0,0
164,129,-1140,16306,3012,0,0,0,0,0,0,0,0,0,0,0
165,129,-1208,16360,3178,0,0,0,0,0,0,0,0,0,0,0
166,129,-1258,16436,2946,0,0,0,0,0,0,0,0,0,0,0
167,129,-1216,16342,2956,0,0,0,0,0,0,0,0,0,0,0
168,129,-1210,16282,3056,0,0,0,0,0,0,0,0,0,0,0
169,129,-1120,16388,3034,0,0,0,0,0,0,0,0,0,0,0
170,129,-1222,16250,3074,0,0,0,0,0,0,0,0,0,0,0
171,129,-1158,16326,3106,0,0,0,0,0,0,0,0,0,0,0
172,129,-1160,16344,3008,0,0,0,0,0,0,0,0,0,0,0
173,129,-1150,16262,3140,0,0,0,0,0,0,0,0,0,0,0
174,129,-1182,16408,3168,0,0,0,0,0,0,0,0,0,0,0
175,129,-1188,16294,3118,0,0,0,0,0,0,0,0,0,0,0
176,129,-1258,16342,3170,0,0,0,0,0,0,0,0,0,0,0
177,129,-1204,16376,2986,0,0,0,0,0,0,0,0,0,0,0
178,129,-1196,16370,2988,0,0,0,0,0,0,0,0,0,0,0
179,129,-1248,16284,3154,0,0,0,0,0,0,0,0,0,0,0
180,129,-1226,16262,3164,0,0,0,0,0,0,0,0,0,0,0
181,129,-1210,16428,3100,0,0,0,0,0,0,0,0,0,0,0
182,129,-1264,16362,2956,0,0,0,0,0,0,0,0,0,0,0
183,129,-1140,16374,3112,0,0,0,0,0,0,0,0,0,0,0
184,129,-1152,16560,3052,0,0,0,0,0,0,0,0,0,0,0
185,129,-1222,16228,3074,0,0,0,0,0,0,0,0,0,0,0
186,129,-1182,16408,3018,0,0,0,0,0,0,0,0,0,0,0
187,129,-1200,16508,3180,0,0,0,0,0,0,0,0,0,0,0
188,129,-1196,16280,2940,0,0,0,0,0,0,0,0,0,0,0
189,129,-1246,16366,3144,0,0,0,0,0,0,0,0,0,0,0
190,129,-1228,16280,2882,0,0,0,0,0,0,0,0,0,0,0
191,129,-1238,16392,3084,0,0,0,0,0,0,0,0,0,0,0
192,129,-1242,16322,3036,0,0,0,0,0,0,0,0,0,0,0
193,129,-1170,16344,3080,0,0,0,0,0,0,0,0,0,0,0
194,129,-1188,16392,3210,0,0,0,0,0,0,0,0,0,0,0
195,129,-1182,16326,3170,0,0,0,0,0,0,0,0,0,0,0
196,129,-1190,16390,3086,0,0,0,0,0,0,0,0,0,0,0
197,129,-1140,16362,3106,0,0,0,0,0,0,0,0,0,0,0
198,129,-1266,16324,3134,0,0,0,0,0,0,0,0,0,0,0
199,129,-1156,16430,2982,0,0,0,0,0,0,0,0,0,0,0
200,129,-1222,16362,3034,0,0,0,0,0,0,0,0,0,0,0
201,129,-1226,16382,3138,0,0,0,0,0,0,0,0,0,0,0
202,129,-1228,16402,3166,0,0,0,0,0,0,0,0,0,0,0
203,129,-1240,16334,3040,0,0,0,0,0,0,0,0,0,0,0
204,129,-1194,16386,3064,0,0,0,0,0,0,0,0,0,0,0
205,129,-1194,16310,3060,0,0,0,0,0,0,0,0,0,0,0
206,129,-1202,16360,3036,0,0,0,0,0,0,0,0,0,0,0
207,129,-1242,16304,3112,0,0,0,0,0,0,0,0,0,0,0
208,129,-1178,16344,3044,0,0,0,0,0,0,0,0,0,0,0
209,129,-1180,16334,3062,0,0,0,0,0,0,0,0,0,0,0
210,129,-1198,16406,2966,0,0,0,0,0,0,0,0,0,0,0
211,129,-1250,16376,3090,0,0,0,0,0,0,0,0,0,0,0
212,129,-1222,16236,3124,0,0,0,0,0,0,0,0,0,0,0
213,129,-1218,16358,3244,0,0,0,0,0,0,0,0,0,0,0
214,129,-1240,16454,3130,0,0,0,0,0,0,0,0,0,0,0
215,129,-1308,16266,3044,0,0,0,0,0,0,0,0,0,0,0
216,129,-1292,16404,2978,0,0,0,0,0,0,0,0,0,0,0
217,129,-1190,16394,3078,0,0,0,0,0,0,0,0,0,0,0
218,129,-1166,16252,3140,0,0,0,0,0,0,0,0,0,0,0
219,129,-1184,16386,3176,0,0,0,0,0,0,0,0,0,0,0
220,129,-1218,16374,3196,0,0,0,0,0,0,0,0,0,0,0
221,129,-1218,16288,3066,0,0,0,0,0,0,0,0,0,0,0
222,129,-1146,16400,3066,0,0,0,0,0,0,0,0,0,0,0
223,129,-1170,16376,3146,0,0,0,0,0,0,0,0,0,0,0
224,129,-1238,16270,3024,0,0,0,0,0,0,0,0,0,0,0
225,129,-1162,16394,3274,0,0,0,0,0,0,0,0,0,0,0
226,129,-1226,16340,3060,0,0,0,0,0,0,0,0,0,0,0
227,129,-1314,16334,3002,0,0,0,0,0,0,0,0,0,0,0
228,129,-1164,16352,2910,0,0,0,0,0,0,0,0,0,0,0
229,129,-1212,16414,3136,0,0,0,0,0,0,0,0,0,0,0
230,129,-1260,16352,2986,0,0,0,0,0,0,0,0,0,0,0
231,129,-1196,16352,3116,0,0,0,0,0,0,0,0,0,0,0
232,129,-1326,16416,2998,0,0,0,0,0,0,0,0,0,0,0
233,129,-1194,16330,3012,0,0,0,0,0,0,0,0,0,0,0
234,129,-1178,16396,3122,0,0,0,0,0,0,0,0,0,0,0
235,129,-1228,16336,3008,0,0,0,0,0,0,0,0,0,0,0
236,129,-1196,16390,2996,0,0,0,0,0,0,0,0,0,0,0
237,129,-1206,16388,3118,0,0,0,0,0,0,0,0,0,0,0
238,129,-1198,16396,3138,0,0,0,0,0,0,0,0,0,0,0
239,129,-1144,16384,3094,0,0,0,0,0,0,0,0,0,0,0
240,129,-1140,16372,3036,0,0,0,0,0,0,0,0,0,0,0
241,129,-1128,16356,3130,0,0,0,0,0,0,0,0,0,0,0
242,129,-1186,16318,3174,0,0,0,0,0,0,0,0,0,0,0
243,129,-1128,16410,3002,0,0,0,0,0,0,0,0,0,0,0
244,129,-1148,16334,2890,0,0,0,0,0,0,0,0,0,0,0
245,129,-1210,16340,3144,0,0,0,0,0,0,0,0,0,0,0
246,129,-1222,16414,3046,0,0,0,0,0,0,0,0,0,0,0
247,129,-1238,16360,3032,0,0,0,0,0,0,0,0,0,0,0
248,129,-1190,16374,3038,0,0,0,0,0,0,0,0,0,0,0
249,129,-1208,16342,3022,0,0,0,0,0,0,0,0,0,0,0
250,129,-1160,16264,3196,0,0,0,0,0,0,0,0,0,0,0
251,129,-1174,16382,3050,0,0,0,0,0,0,0,0,0,0,0
252,129,-1154,16322,2946,0,0,0,0,0,0,0,0,0,0,0
253,129,-1154,16382,3040,0,0,0,0,0,0,0,0,0,0,0
254,129,-1228,16270,3098,0,0,0,0,0,0,0,0,0,0,0
255,129,-1192,16394,3106,0,0,0,0,0,0,0,0,0,0,0
256,129,-1158,16292,3034,0,0,0,0,0,0,0,0,0,0,0
257,129,-1240,16306,3154,0,0,0,0,0,0,0,0,0,0,0
258,129,-1184,16456,2944,0,0,0,0,0,0,0,0,0,0,0
259,129,-1280,16252,3060,0,0,0,0,0,0,0,0,0,0,0
260,129,-1154,16234,3056,0,0,0,0,0,0,0,0,0,0,0
261,129,-1144,16336,2978,0,0,0,0,0,0,0,0,0,0,0
262,129,-1190,16318,3116,0,0,0,0,0,0,0,0,0,0,0
263,129,-1232,16298,3084,0,0,0,0,0,0,0,0,0,0,0
264,129,-1182,16348,2998,0,0,0,0,0,0,0,0,0,0,0
265,129,-1224,16252,3238,0,0,0,0,0,0,0,0,0,0,0
266,129,-1288,16316,3074,0,0,0,0,0,0,0,0,0,0,0
267,129,-1150,16382,3056,0,0,0,0,0,0,0,0,0,0,0
268,129,-1216,16328,3064,0,0,0,0,0,0,0,0,0,0,0
269,129,-1168,16316,3140,0,0,0,0,0,0,0,0,0,0,0
270,129,-1288,16404,3144,0,0,0,0,0,0,0,0,0,0,0
271,129,-1156,16350,2998,0,0,0,0,0,0,0,0,0,0,0
272,129,-1214,16382,2976,0,0,0,0,0,0,0,0,0,0,0
273,129,-1196,16390,3064,0,0,0,0,0,0,0,0,0,0,0
274,129,-1198,16324,3028,0,0,0,0,0,0,0,0,0,0,0
275,129,-1174,16428,3096,0,0,0,0,0,0,0,0,0,0,0
276,129,-1222,16282,2968,0,0,0,0,0,0,0,0,0,0,0
277,129,-1218,16294,3016,0,0,0,0,0,0,0,0,0,0,0
278,129,-1276,16272,2936,0,0,0,0,0,0,0,0,0,0,0
279,129,-1142,16380,3156,0,0,0,0,0,0,0,0,0,0,0
280,129,-1162,16324,3130,0,0,0,0,0,0,0,0,0,0,0
281,129,-1194,16342,2974,0,0,0,0,0,0,0,0,0,0,0
282,129,-1166,16362,3142,0,0,0,0,0,0,0,0,0,0,0
283,129,-1206,16226,3078,0,0,0,0,0,0,0,0,0,0,0
284,129,-1152,16418,3056,0,0,0,0,0,0,0,0,0,0,0
285,129,-1210,16300,3140,0,0,0,0,0,0,0,0,0,0,0
286,129,-1194,16320,3042,0,0,0,0,0,0,0,0,0,0,0
287,129,-1170,16406,3074,0,0,0,0,0,0,0,0,0,0,0
288,129,-1202,16422,3048,0,0,0,0,0,0,0,0,0,0,0
289,129,-1300,16384,3156,0,0,0,0,0,0,0,0,0,0,0
290,129,-1228,16308,3012,0,0,0,0,0,0,0,0,0,0,0
291,129,-1194,16338,3008,0,0,0,0,0,0,0,0,0,0,0
292,129,-1236,16284,3098,0,0,0,0,0,0,0,0,0,0,0
293,129,-1152,16368,3010,0,0,0,0,0,0,0,0,0,0,0
294,129,-1184,16386,3000,0,0,0,0,0,0,0,0,0,0,0
295,129,-1260,16356,3126,0,0,0,0,0,0,0,0,0,0,0
296,129,-1308,16310,3016,0,0,0,0,0,0,0,0,0,0,0
297,129,-1184,16440,3138,0,0,0,0,0,0,0,0,0,0,0
298,129,-1136,16318,3060,0,0,0,0,0,0,0,0,0,0,0
299,129,-1256,16302,3064,0,0,0,0,0,0,0,0,0,0,0
300,129,-1198,16316,3102,0,0,0,0,0,0,0,0,0,0,0
301,129,-1182,16262,3034,0,0,0,0,0,0,0,0,0,0,0
302,129,-1160,16220,3014,0,0,0,0,0,0,0,0,0,0,0
303,129,-1160,16328,3012,0,0,0,0,0,0,0,0,0,0,0
304,129,-1208,16250,3048,0,0,0,0,0,0,0,0,0,0,0
305,129,-1204,16308,3048,0,0,0,0,0,0,0,0,0,0,0
306,129,-1168,16360,3122,0,0,0,0,0,0,0,0,0,0,0
307,129,-1246,16262,3208,0,0,0,0,0,0,0,0,0,0,0
308,129,-1146,16386,3074,0,0,0,0,0,0,0,0,0,0,0
309,129,-1194,16440,3212,0,0,0,0,0,0,0,0,0,0,0
310,129,-1154,16262,2974,0,0,0,0,0,0,0,0,0,0,0
311,129,-1158,16312,3052,0,0,0,0,0,0,0,0,0,0,0
312,129,-1210,16344,3112,0,0,0,0,0,0,0,0,0,0,0
313,129,-1288,16278,3004,0,0,0,0,0,0,0,0,0,0,0
314,129,-1156,16370,3154,0,0,0,0,0,0,0,0,0,0,0
315,129,-1214,16352,3142,0,0,0,0,0,0,0,0,0,0,0
316,129,-1252,16232,3078,0,0,0,0,0,0,0,0,0,0,0
317,129,-1176,16374,3010,0,0,0,0,0,0,0,0,0,0,0
318,129,-1192,16376,3186,0,0,0,0,0,0,0,0,0,0,0
319,129,-1142,16338,2984,0,0,0,0,0,0,0,0,0,0,0
320,129,-1176,16320,3156,0,0,0,0,0,0,0,0,0,0,0
321,129,-1192,16368,3252,0,0,0,0,0,0,0,0,0,0,0
322,129,-1184,16340,3128,0,0,0,0,0,0,0,0,0,0,0
323,129,-1142,16400,3004,0,0,0,0,0,0,0,0,0,0,0
324,129,-1186,16282,3036,0,0,0,0,0,0,0,0,0,0,0
325,129,-1206,16370,2980,0,0,0,0,0,0,0,0,0,0,0
326,129,-1232,16360,3030,0,0,0,0,0,0,0,0,0,0,0
327,129,-1174,16324,3006,0,0,0,0,0,0,0,0,0,0,0
328,129,-1276,16366,3016,0,0,0,0,0,0,0,0,0,0,0
329,129,-1148,16428,3114,0,0,0,0,0,0,0,0,0,0,0
330,129,-1176,16296,3094,0,0,0,0,0,0,0,0,0,0,0
331,129,-1118,16368,3020,0,0,0,0,0,0,0,0,0,0,0
332,129,-1100,16378,3034,0,0,0,0,0,0,0,0,0,0,0
333,129,-1216,16332,3060,0,0,0,0,0,0,0,0,0,0,0
334,129,-1228,16384,2958,0,0,0,0,0,0,0,0,0,0,0
335,129,-1212,16396,3082,0,0,0,0,0,0,0,0,0,0,0
336,129,-1192,16264,2976,0,0,0,0,0,0,0,0,0,0,0
337,129,-1162,16382,3060,0,0,0,0,0,0,0,0,0,0,0
338,129,-1184,16348,3058,0,0,0,0,0,0,0,0,0,0,0
339,129,-1232,16396,2980,0,0,0,0,0,0,0,0,0,0,0
340,129,-1206,16334,2950,0,0,0,0,0,0,0,0,0,0,0
341,129,-1216,16418,3078,0,0,0,0,0,0,0,0,0,0,0
342,129,-1160,16314,3130,0,0,0,0,0,0,0,0,0,0,0
343,129,-1170,16276,3114,0,0,0,0,0,0,0,0,0,0,0
344,129,-1266,16368,3100,0,0,0,0,0,0,0,0,0,0,0
345,129,-1248,16330,3064,0,0,0,0,0,0,0,0,0,0,0
346,129,-1274,16312,3156,0,0,0,0,0,0,0,0,0,0,0
347,129,-1156,16402,3014,0,0,0,0,0,0,0,0,0,0,0
348,129,-1214,16306,2980,0,0,0,0,0,0,0,0,0,0,0
349,129,-1256,16290,3220,0,0,0,0,0,0,0,0,0,0,0
350,129,-1136,16356,2976,0,0,0,0,0,0,0,0,0,0,0
351,129,-1132,16270,2916,0,0,0,0,0,0,0,0,0,0,0
352,129,-1232,16304,2950,0,0,0,0,0,0,0,0,0,0,0
