ProgrNum,PacketType,AccX,AccY,AccZ,GyrX,GyrY,GyrZ,MagX,MagY,MagZ,Q0,Q1,Q2,Q3,Vbat
0,129,-1090,15622,5922,0,0,0,0,0,0,0,0,0,0,0
1,129,-1086,15542,5766,0,0,0,0,0,0,0,0,0,0,0
2,129,-1162,15560,5890,0,0,0,0,0,0,0,0,0,0,0
3,129,-1092,15622,5712,0,0,0,0,0,0,0,0,0,0,0
4,129,-1172,15538,5702,0,0,0,0,0,0,0,0,0,0,0
5,129,-1142,15498,5858,0,0,0,0,0,0,0,0,0,0,0
6,129,-1118,15536,5914,0,0,0,0,0,0,0,0,0,0,0
7,129,-1108,15526,5780,0,0,0,0,0,0,0,0,0,0,0
8,129,-1094,15500,5838,0,0,0,0,0,0,0,0,0,0,0
9,129,-1088,15638,5712,0,0,0,0,0,0,0,0,0,0,0
10,129,-1086,15578,5916,0,0,0,0,0,0,0,0,0,0,0
11,129,-1094,15538,5946,0,0,0,0,0,0,0,0,0,0,0
12,129,-1074,15662,5958,0,0,0,0,0,0,0,0,0,0,0
13,129,-1144,15510,5702,0,0,0,0,0,0,0,0,0,0,0
14,129,-1154,15548,5788,0,0,0,0,0,0,0,0,0,0,0
15,129,-1042,15660,5782,0,0,0,0,0,0,0,0,0,0,0
16,129,-1130,15518,5900,0,0,0,0,0,0,0,0,0,0,0
17,129,-1082,15456,5778,0,0,0,0,0,0,0,0,0,0,0
18,129,-1066,15638,5800,0,0,0,0,0,0,0,0,0,0,0
19,129,-1124,15496,5812,0,0,0,0,0,0,0,0,0,0,0
20,129,-1112,15582,5778,0,0,0,0,0,0,0,0,0,0,0
21,129,-1068,15554,5740,0,0,0,0,0,0,0,0,0,0,0
22,129,-1106,15530,5764,0,0,0,0,0,0,0,0,0,0,0
23,129,-1156,15624,5724,0,0,0,0,0,0,0,0,0,0,0
24,129,-1122,15544,5750,0,0,0,0,0,0,0,0,0,0,0
25,129,-1160,15508,5782,0,0,0,0,0,0,0,0,0,0,0
26,129,-1080,15554,5874,0,0,0,0,0,0,0,0,0,0,0
27,129,-1100,15566,5794,0,0,0,0,0,0,0,0,0,0,0
28,129,-1100,15464,5794,0,0,0,0,0,0,0,0,0,0,0
29,129,-1106,15558,5774,0,0,0,0,0,0,0,0,0,0,0
30,129,-1048,15540,5690,0,0,0,0,0,0,0,0,0,0,0
31,129,-1080,15584,5840,0,0,0,0,0,0,0,0,0,0,0
32,129,-1050,15532,5800,0,0,0,0,0,0,0,0,0,0,0
33,129,-1116,15566,5820,0,0,0,0,0,0,0,0,0,0,0
34,129,-1118,15468,5800,0,0,0,0,0,0,0,0,0,0,0
35,129,-1166,15556,5688,0,0,0,0,0,0,0,0,0,0,0
36,129,-1056,15558,5742,0,0,0,0,0,0,0,0,0,0,0
37,129,-1102,15534,5826,0,0,0,0,0,0,0,0,0,0,0
38,129,-1076,15596,5794,0,0,0,0,0,0,0,0,0,0,0
39,129,-1108,15548,5740,0,0,0,0,0,0,0,0,0,0,0
40,129,-1158,15534,5772,0,0,0,0,0,0,0,0,0,0,0
41,129,-1130,15584,5732,0,0,0,0,0,0,0,0,0,0,0
42,129,-1112,15568,5636,0,0,0,0,0,0,0,0,0,0,0
43,129,-1114,15524,5688,0,0,0,0,0,0,0,0,0,0,0
44,129,-1062,15514,5792,0,0,0,0,0,0,0,0,0,0,0
45,129,-982,15584,5804,0,0,0,0,0,0,0,0,0,0,0
46,129,-1060,15496,5722,0,0,0,0,0,0,0,0,0,0,0
47,129,-1094,15490,5818,0,0,0,0,0,0,0,0,0,0,0
48,129,-1116,15642,5890,0,0,0,0,0,0,0,0,0,0,0
49,129,-1186,15584,6036,0,0,0,0,0,0,0,0,0,0,0
50,129,-1072,15482,5810,0,0,0,0,0,0,0,0,0,0,0
51,129,-1096,15618,5758,0,0,0,0,0,0,0,0,0,0,0
52,129,-1152,15546,5840,0,0,0,0,0,0,0,0,0,0,0
53,129,-1110,15558,5812,0,0,0,0,0,0,0,0,0,0,0
54,129,-1098,15584,5762,0,0,0,0,0,0,0,0,0,0,0
55,129,-1146,15526,5680,0,0,0,0,0,0,0,0,0,0,0
56,129,-1120,15654,5774,0,0,0,0,0,0,0,0,0,0,0
57,129,-1096,15552,5864,0,0,0,0,0,0,0,0,0,0,0
58,129,-1174,15522,5884,0,0,0,0,0,0,0,0,0,0,0
59,129,-1128,15582,5898,0,0,0,0,0,0,0,0,0,0,0
60,129,-1080,15518,5932,0,0,0,0,0,0,0,0,0,0,0
61,129,-1124,15538,5642,0,0,0,0,0,0,0,0,0,0,0
62,129,-1040,15570,5914,0,0,0,0,0,0,0,0,0,0,0
63,129,-1104,15604,5804,0,0,0,0,0,0,0,0,0,0,0
64,129,-1084,15400,5832,0,0,0,0,0,0,0,0,0,0,0
65,129,-1140,15598,5850,0,0,0,0,0,0,0,0,0,0,0
66,129,-1088,15616,5798,0,0,0,0,0,0,0,0,0,0,0
67,129,-1146,15586,5898,0,0,0,0,0,0,0,0,0,0,0
68,129,-1156,15588,5748,0,0,0,0,0,0,0,0,0,0,0
69,129,-1110,15524,5704,0,0,0,0,0,0,0,0,0,0,0
70,129,-1138,15504,5812,0,0,0,0,0,0,0,0,0,0,0
71,129,-1126,15498,5748,0,0,0,0,0,0,0,0,0,0,0
72,129,-1138,15574,5748,0,0,0,0,0,0,0,0,0,0,0
73,129,-1122,15534,5796,0,0,0,0,0,0,0,0,0,0,0
74,129,-1160,15566,5810,0,0,0,0,0,0,0,0,0,0,0
75,129,-1070,15592,5748,0,0,0,0,0,0,0,0,0,0,0
76,129,-1080,15516,5898,0,0,0,0,0,0,0,0,0,0,0
77,129,-1070,15582,5818,0,0,0,0,0,0,0,0,0,0,0
78,129,-1118,15576,5720,0,0,0,0,0,0,0,0,0,0,0
79,129,-1120,15522,5946,0,0,0,0,0,0,0,0,0,0,0
80,129,-1166,15578,5826,0,0,0,0,0,0,0,0,0,0,0
81,129,-1100,15618,5852,0,0,0,0,0,0,0,0,0,0,0
82,129,-1110,15488,5824,0,0,0,0,0,0,0,0,0,0,0
83,129,-1068,15550,5708,0,0,0,0,0,0,0,0,0,0,0
84,129,-1202,15514,5764,0,0,0,0,0,0,0,0,0,0,0
85,129,-1172,15506,5830,0,0,0,0,0,0,0,0,0,0,0
86,129,-1118,15586,5844,0,0,0,0,0,0,0,0,0,0,0
87,129,-1074,15532,5756,0,0,0,0,0,0,0,0,0,0,0
88,129,-1162,15550,5832,0,0,0,0,0,0,0,0,0,0,0
89,129,-1076,15556,5798,0,0,0,0,0,0,0,0,0,0,0
90,129,-1098,15440,5912,0,0,0,0,0,0,0,0,0,0,0
91,129,-1102,15522,5768,0,0,0,0,0,0,0,0,0,0,0
92,129,-1052,15492,5742,0,0,0,0,0,0,0,0,0,0,0
93,129,-1102,15534,5750,0,0,0,0,0,0,0,0,0,0,0
94,129,-1106,15628,5868,0,0,0,0,0,0,0,0,0,0,0
95,129,-1124,15558,5656,0,0,0,0,0,0,0,0,0,0,0
96,129,-1106,15474,5730,0,0,0,0,0,0,0,0,0,0,0
97,129,-1138,15498,5788,0,0,0,0,0,0,0,0,0,0,0
98,129,-1188,15536,5646,0,0,0,0,0,0,0,0,0,0,0
99,129,-1102,15560,5772,0,0,0,0,0,0,0,0,0,0,0
100,129,-1214,15644,5914,0,0,0,0,0,0,0,0,0,0,0
101,129,-1056,15624,5808,0,0,0,0,0,0,0,0,0,0,0
102,129,-994,15512,5852,0,0,0,0,0,0,0,0,0,0,0
103,129,-1168,15474,5804,0,0,0,0,0,0,0,0,0,0,0
104,129,-1056,15578,5782,0,0,0,0,0,0,0,0,0,0,0
105,129,-1140,15656,5780,0,0,0,0,0,0,0,0,0,0,0
106,129,-1084,15544,5870,0,0,0,0,0,0,0,0,0,0,0
107,129,-1058,15560,5864,0,0,0,0,0,0,0,0,0,0,0
108,129,-1138,15612,5952,0,0,0,0,0,0,0,0,0,0,0
109,129,-1102,15562,5868,0,0,0,0,0,0,0,0,0,0,0
110,129,-1114,15586,5788,0,0,0,0,0,0,0,0,0,0,0
111,129,-1098,15550,5786,0,0,0,0,0,0,0,0,0,0,0
112,129,-1154,15538,5904,0,0,0,0,0,0,0,0,0,0,0
113,129,-1146,15526,5838,0,0,0,0,0,0,0,0,0,0,0
114,129,-1118,15570,5758,0,0,0,0,0,0,0,0,0,0,0
115,129,-1138,15560,5708,0,0,0,0,0,0,0,0,0,0,0
116,129,-1114,15594,5902,0,0,0,0,0,0,0,0,0,0,0
117,129,-1116,15540,5826,0,0,0,0,0,0,0,0,0,0,0
118,129,-1122,15508,5798,0,0,0,0,0,0,0,0,0,0,0
119,129,-1064,15592,5754,0,0,0,0,0,0,0,0,0,0,0
120,129,-1100,15506,5754,0,0,0,0,0,0,0,0,0,0,0
121,129,-1192,15556,5750,0,0,0,0,0,0,0,0,0,0,0
122,129,-1088,15606,5744,0,0,0,0,0,0,0,0,0,0,0
123,129,-1098,15478,5794,0,0,0,0,0,0,0,0,0,0,0
124,129,-1058,15542,5742,0,0,0,0,0,0,0,0,0,0,0
125,129,-1022,15658,5838,0,0,0,0,0,0,0,0,0,0,0
126,129,-1036,15544,5964,0,0,0,0,0,0,0,0,0,0,0
127,129,-1076,15534,5800,0,0,0,0,0,0,0,0,0,0,0
128,129,-1030,15640,5924,0,0,0,0,0,0,0,0,0,0,0
129,129,-1098,15494,5820,0,0,0,0,0,0,0,0,0,0,0
130,129,-1150,15524,5794,0,0,0,0,0,0,0,0,0,0,0
131,129,-1126,15644,5688,0,0,0,0,0,0,0,0,0,0,0
132,129,-1112,15512,5804,0,0,0,0,0,0,0,0,0,0,0
133,129,-1082,15494,5792,0,0,0,0,0,0,0,0,0,0,0
134,129,-1030,15558,5746,0,0,0,0,0,0,0,0,0,0,0
135,129,-1010,15574,5708,0,0,0,0,0,0,0,0,0,0,0
136,129,-1054,15484,5858,0,0,0,0,0,0,0,0,0,0,0
137,129,-1068,15622,5804,0,0,0,0,0,0,0,0,0,0,0
138,129,-1068,15542,5856,0,0,0,0,0,0,0,0,0,0,0
139,129,-1114,15584,5788,0,0,0,0,0,0,0,0,0,0,0
140,129,-1142,15566,5930,0,0,0,0,0,0,0,0,0,0,0
141,129,-1118,15554,5886,0,0,0,0,0,0,0,0,0,0,0
142,129,-1188,15478,5782,0,0,0,0,0,0,0,0,0,0,0
143,129,-1010,15564,5772,0,0,0,0,0,0,0,0,0,0,0
144,129,-1080,15570,5784,0,0,0,0,0,0,0,0,0,0,0
145,129,-1148,15506,5824,0,0,0,0,0,0,0,0,0,0,0
146,129,-1134,15536,5852,0,0,0,0,0,0,0,0,0,0,0
147,129,-1080,15554,5732,0,0,0,0,0,0,0,0,0,0,0
148,129,-1120,15484,5884,0,0,0,0,0,0,0,0,0,0,0
149,129,-1082,15582,5722,0,0,0,0,0,0,0,0,0,0,0
150,129,-1110,15612,5828,0,0,0,0,0,0,0,0,0,0,0
151,129,-1120,15552,5750,0,0,0,0,0,0,0,0,0,0,0
152,129,-998,15572,5814,0,0,0,0,0,0,0,0,0,0,0
153,129,-1046,15530,5712,0,0,0,0,0,0,0,0,0,0,0
154,129,-1140,15482,5820,0,0,0,0,0,0,0,0,0,0,0
155,129,-1202,15526,5804,0,0,0,0,0,0,0,0,0,0,0
156,129,-1082,15542,5666,0,0,0,0,0,0,0,0,0,0,0
157,129,-1100,15622,5774,0,0,0,0,0,0,0,0,0,0,0
158,129,-1030,15500,5832,0,0,0,0,0,0,0,0,0,0,0
159,129,-1186,15536,5964,0,0,0,0,0,0,0,0,0,0,0
160,129,-1122,15532,5882,0,0,0,0,0,0,0,0,0,0,0
161,129,-1056,15604,5736,0,0,0,0,0,0,0,0,0,0,0
162,129,-1118,15542,5748,0,0,0,0,0,0,0,0,0,0,0
163,129,-1152,15436,5806,0,0,0,0,0,0,0,0,0,0,0
164,129,-1128,15494,5700,0,0,0,0,0,0,0,0,0,0,0
165,129,-1182,15528,5774,0,0,0,0,0,0,0,0,0,0,0
166,129,-1150,15484,5822,0,0,0,0,0,0,0,0,0,0,0
167,129,-1068,15628,5676,0,0,0,0,0,0,0,0,0,0,0
168,129,-1086,15516,5752,0,0,0,0,0,0,0,0,0,0,0
169,129,-1164,15484,5850,0,0,0,0,0,0,0,0,0,0,0
170,129,-1068,15540,5732,0,0,0,0,0,0,0,0,0,0,0
171,129,-1098,15430,5790,0,0,0,0,0,0,0,0,0,0,0
172,129,-1136,15526,5782,0,0,0,0,0,0,0,0,0,0,0
173,129,-1062,15576,5814,0,0,0,0,0,0,0,0,0,0,0
174,129,-1128,15616,5870,0,0,0,0,0,0,0,0,0,0,0
175,129,-1144,15510,5776,0,0,0,0,0,0,0,0,0,0,0
176,129,-1102,15554,5676,0,0,0,0,0,0,0,0,0,0,0
177,129,-1126,15526,5824,0,0,0,0,0,0,0,0,0,0,0
178,129,-1068,15614,6012,0,0,0,0,0,0,0,0,0,0,0
179,129,-1126,15614,5794,0,0,0,0,0,0,0,0,0,0,0
180,129,-1090,15562,5742,0,0,0,0,0,0,0,0,0,0,0
181,129,-1108,15546,5780,0,0,0,0,0,0,0,0,0,0,0
182,129,-1106,15582,5728,0,0,0,0,0,0,0,0,0,0,0
183,129,-1044,15500,5896,0,0,0,0,0,0,0,0,0,0,0
184,129,-1118,15526,5798,0,0,0,0,0,0,0,0,0,0,0
185,129,-1136,15584,5718,0,0,0,0,0,0,0,0,0,0,0
186,129,-1130,15514,5794,0,0,0,0,0,0,0,0,0,0,0
187,129,-1192,15562,5786,0,0,0,0,0,0,0,0,0,0,0
188,129,-1082,15530,5680,0,0,0,0,0,0,0,0,0,0,0
189,129,-1082,15540,5778,0,0,0,0,0,0,0,0,0,0,0
190,129,-1054,15638,5806,0,0,0,0,0,0,0,0,0,0,0
191,129,-1114,15532,5786,0,0,0,0,0,0,0,0,0,0,0
192,129,-1100,15578,5740,0,0,0,0,0,0,0,0,0,0,0
193,129,-1144,15564,5858,0,0,0,0,0,0,0,0,0,0,0
194,129,-1086,15648,5742,0,0,0,0,0,0,0,0,0,0,0
195,129,-1022,15510,5756,0,0,0,0,0,0,0,0,0,0,0
196,129,-1096,15436,5788,0,0,0,0,0,0,0,0,0,0,0
197,129,-1100,15572,5828,0,0,0,0,0,0,0,0,0,0,0
198,129,-1144,15602,5812,0,0,0,0,0,0,0,0,0,0,0
199,129,-1118,15504,5860,0,0,0,0,0,0,0,0,0,0,0
200,129,-1146,15640,5718,0,0,0,0,0,0,0,0,0,0,0
201,129,-1108,15498,5808,0,0,0,0,0,0,0,0,0,0,0
202,129,-1096,15536,5782,0,0,0,0,0,0,0,0,0,0,0
203,129,-1128,15650,5658,0,0,0,0,0,0,0,0,0,0,0
204,129,-1190,15512,5824,0,0,0,0,0,0,0,0,0,0,0
205,129,-1092,15418,5898,0,0,0,0,0,0,0,0,0,0,0
206,129,-1090,15564,5830,0,0,0,0,0,0,0,0,0,0,0
207,129,-1070,15556,5852,0,0,0,0,0,0,0,0,0,0,0
208,129,-1000,15480,5762,0,0,0,0,0,0,0,0,0,0,0
209,129,-1082,15570,5822,0,0,0,0,0,0,0,0,0,0,0
210,129,-1114,15510,5862,0,0,0,0,0,0,0,0,0,0,0
211,129,-1048,15518,5748,0,0,0,0,0,0,0,0,0,0,0
212,129,-1070,15606,5746,0,0,0,0,0,0,0,0,0,0,0
213,129,-1100,15548,5802,0,0,0,0,0,0,0,0,0,0,0
214,129,-1134,15464,5836,0,0,0,0,0,0,0,0,0,0,0
215,129,-1056,15716,5640,0,0,0,0,0,0,0,0,0,0,0
216,129,-1056,15512,5788,0,0,0,0,0,0,0,0,0,0,0
217,129,-1144,15480,5756,0,0,0,0,0,0,0,0,0,0,0
218,129,-1154,15572,5730,0,0,0,0,0,0,0,0,0,0,0
219,129,-1080,15508,5870,0,0,0,0,0,0,0,0,0,0,0
220,129,-1036,15540,5696,0,0,0,0,0,0,0,0,0,0,0
221,129,-1096,15616,5776,0,0,0,0,0,0,0,0,0,0,0
222,129,-1028,15536,5786,0,0,0,0,0,0,0,0,0,0,0
223,129,-1046,15546,5864,0,0,0,0,0,0,0,0,0,0,0
224,129,-1106,15664,5778,0,0,0,0,0,0,0,0,0,0,0
225,129,-1142,15528,5678,0,0,0,0,0,0,0,0,0,0,0
226,129,-1126,15606,5736,0,0,0,0,0,0,0,0,0,0,0
227,129,-1114,15598,5768,0,0,0,0,0,0,0,0,0,0,0
228,129,-1120,15600,5864,0,0,0,0,0,0,0,0,0,0,0
229,129,-1060,15540,5888,0,0,0,0,0,0,0,0,0,0,0
230,129,-1080,15602,5818,0,0,0,0,0,0,0,0,0,0,0
231,129,-1118,15534,5860,0,0,0,0,0,0,0,0,0,0,0
232,129,-1162,15656,6044,0,0,0,0,0,0,0,0,0,0,0
233,129,-1106,15642,5734,0,0,0,0,0,0,0,0,0,0,0
234,129,-1162,15544,5880,0,0,0,0,0,0,0,0,0,0,0
235,129,-1146,15582,5686,0,0,0,0,0,0,0,0,0,0,0
236,129,-1022,15550,5964,0,0,0,0,0,0,0,0,0,0,0
237,129,-1098,15464,5758,0,0,0,0,0,0,0,0,0,0,0
238,129,-1100,15588,5734,0,0,0,0,0,0,0,0,0,0,0
239,129,-1114,15578,5808,0,0,0,0,0,0,0,0,0,0,0
240,129,-1040,15560,5740,0,0,0,0,0,0,0,0,0,0,0
241,129,-1030,15550,5898,0,0,0,0,0,0,0,0,0,0,0
242,129,-1120,15614,5790,0,0,0,0,0,0,0,0,0,0,0
243,129,-1126,15580,5808,0,0,0,0,0,0,0,0,0,0,0
244,129,-1112,15520,5880,0,0,0,0,0,0,0,0,0,0,0
245,129,-1112,15580,5822,0,0,0,0,0,0,0,0,0,0,0
246,129,-1110,15536,6014,0,0,0,0,0,0,0,0,0,0,0
247,129,-1106,15502,5858,0,0,0,0,0,0,0,0,0,0,0
248,129,-1096,15594,5740,0,0,0,0,0,0,0,0,0,0,0
249,129,-1134,15524,5816,0,0,0,0,0,0,0,0,0,0,0
250,129,-1158,15606,5914,0,0,0,0,0,0,0,0,0,0,0
251,129,-1116,15490,5736,0,0,0,0,0,0,0,0,0,0,0
252,129,-1152,15566,5836,0,0,0,0,0,0,0,0,0,0,0
253,129,-1056,15584,5852,0,0,0,0,0,0,0,0,0,0,0
254,129,-1144,15572,5694,0,0,0,0,0,0,0,0,0,0,0
255,129,-1092,15548,5758,0,0,0,0,0,0,0,0,0,0,0
256,129,-1114,15594,5778,0,0,0,0,0,0,0,0,0,0,0
257,129,-1098,15596,5800,0,0,0,0,0,0,0,0,0,0,0
258,129,-1150,15508,5818,0,0,0,0,0,0,0,0,0,0,0
259,129,-1170,15556,5690,0,0,0,0,0,0,0,0,0,0,0
260,129,-1130,15570,5774,0,0,0,0,0,0,0,0,0,0,0
261,129,-1154,15500,5790,0,0,0,0,0,0,0,0,0,0,0
262,129,-1120,15604,5778,0,0,0,0,0,0,0,0,0,0,0
263,129,-1142,15554,5834,0,0,0,0,0,0,0,0,0,0,0
264,129,-1120,15462,5924,0,0,0,0,0,0,0,0,0,0,0
265,129,-1012,15580,5708,0,0,0,0,0,0,0,0,0,0,0
266,129,-1094,15632,5848,0,0,0,0,0,0,0,0,0,0,0
267,129,-1058,15592,5806,0,0,0,0,0,0,0,0,0,0,0
268,129,-1068,15518,5808,0,0,0,0,0,0,0,0,0,0,0
269,129,-1034,15556,5652,0,0,0,0,0,0,0,0,0,0,0
270,129,-1146,15510,5880,0,0,0,0,0,0,0,0,0,0,0
271,129,-1158,15558,5746,0,0,0,0,0,0,0,0,0,0,0
272,129,-1076,15548,5802,0,0,0,0,0,0,0,0,0,0,0
273,129,-1086,15516,5892,0,0,0,0,0,0,0,0,0,0,0
274,129,-1142,15546,5754,0,0,0,0,0,0,0,0,0,0,0
275,129,-1054,15630,5860,0,0,0,0,0,0,0,0,0,0,0
276,129,-1118,15612,5764,0,0,0,0,0,0,0,0,0,0,0
277,129,-1068,15594,5850,0,0,0,0,0,0,0,0,0,0,0
278,129,-1122,15578,5942,0,0,0,0,0,0,0,0,0,0,0
279,129,-1104,15544,5706,0,0,0,0,0,0,0,0,0,0,0
280,129,-1098,15584,5766,0,0,0,0,0,0,0,0,0,0,0
281,129,-1156,15596,5810,0,0,0,0,0,0,0,0,0,0,0
282,129,-1180,15496,5786,0,0,0,0,0,0,0,0,0,0,0
283,129,-1154,15520,5770,0,0,0,0,0,0,0,0,0,0,0
284,129,-1070,15584,5836,0,0,0,0,0,0,0,0,0,0,0
285,129,-1096,15556,5838,0,0,0,0,0,0,0,0,0,0,0
286,129,-1136,15618,5786,0,0,0,0,0,0,0,0,0,0,0
287,129,-1102,15568,5768,0,0,0,0,0,0,0,0,0,0,0
288,129,-1058,15534,5776,0,0,0,0,0,0,0,0,0,0,0
289,129,-1078,15542,5766,0,0,0,0,0,0,0,0,0,0,0
290,129,-1124,15510,5728,0,0,0,0,0,0,0,0,0,0,0
291,129,-1150,15498,5726,0,0,0,0,0,0,0,0,0,0,0
292,129,-1102,15534,5784,0,0,0,0,0,0,0,0,0,0,0
293,129,-1084,15570,5870,0,0,0,0,0,0,0,0,0,0,0
294,129,-1100,15566,5844,0,0,0,0,0,0,0,0,0,0,0
295,129,-1174,15582,5872,0,0,0,0,0,0,0,0,0,0,0
296,129,-1146,15632,5944,0,0,0,0,0,0,0,0,0,0,0
297,129,-1098,15580,5752,0,0,0,0,0,0,0,0,0,0,0
298,129,-1088,15626,5796,0,0,0,0,0,0,0,0,0,0,0
299,129,-1112,15628,5658,0,0,0,0,0,0,0,0,0,0,0
300,129,-1076,15582,5742,0,0,0,0,0,0,0,0,0,0,0
301,129,-1134,15534,5804,0,0,0,0,0,0,0,0,0,0,0
302,129,-1068,15574,5784,0,0,0,0,0,0,0,0,0,0,0
303,129,-1080,15480,5856,0,0,0,0,0,0,0,0,0,0,0
304,129,-1188,15490,5892,0,0,0,0,0,0,0,0,0,0,0
305,129,-1134,15568,5718,0,0,0,0,0,0,0,0,0,0,0
306,129,-1100,15532,5794,0,0,0,0,0,0,0,0,0,0,0
307,129,-1078,15516,5666,0,0,0,0,0,0,0,0,0,0,0
308,129,-1068,15560,5812,0,0,0,0,0,0,0,0,0,0,0
309,129,-1130,15460,5790,0,0,0,0,0,0,0,0,0,0,0
310,129,-1106,15548,5900,0,0,0,0,0,0,0,0,0,0,0
311,129,-1090,15586,5852,0,0,0,0,0,0,0,0,0,0,0
312,129,-1172,15530,5826,0,0,0,0,0,0,0,0,0,0,0
313,129,-1132,15574,5842,0,0,0,0,0,0,0,0,0,0,0
314,129,-1108,15588,5696,0,0,0,0,0,0,0,0,0,0,0
315,129,-1104,15508,5818,0,0,0,0,0,0,0,0,0,0,0
316,129,-1156,15480,5714,0,0,0,0,0,0,0,0,0,0,0
317,129,-1160,15630,5816,0,0,0,0,0,0,0,0,0,0,0
318,129,-1126,15516,5768,0,0,0,0,0,0,0,0,0,0,0
319,129,-1134,15602,5716,0,0,0,0,0,0,0,0,0,0,0
320,129,-1062,15628,5810,0,0,0,0,0,0,0,0,0,0,0
321,129,-1096,15540,5802,0,0,0,0,0,0,0,0,0,0,0
322,129,-1106,15554,5888,0,0,0,0,0,0,0,0,0,0,0
323,129,-1114,15572,5810,0,0,0,0,0,0,0,0,0,0,0
324,129,-1198,15450,5760,0,0,0,0,0,0,0,0,0,0,0
325,129,-1104,15602,5834,0,0,0,0,0,0,0,0,0,0,0
326,129,-1074,15542,5850,0,0,0,0,0,0,0,0,0,0,0
327,129,-1072,15498,5862,0,0,0,0,0,0,0,0,0,0,0
328,129,-1200,15522,5822,0,0,0,0,0,0,0,0,0,0,0
329,129,-1052,15550,5796,0,0,0,0,0,0,0,0,0,0,0
330,129,-1124,15474,5782,0,0,0,0,0,0,0,0,0,0,0
331,129,-1044,15552,5772,0,0,0,0,0,0,0,0,0,0,0
332,129,-1088,15574,5800,0,0,0,0,0,0,0,0,0,0,0
333,129,-1136,15572,5830,0,0,0,0,0,0,0,0,0,0,0
334,129,-1134,15592,5850,0,0,0,0,0,0,0,0,0,0,0
335,129,-1078,15476,5728,0,0,0,0,0,0,0,0,0,0,0
336,129,-1070,15530,5748,0,0,0,0,0,0,0,0,0,0,0
337,129,-1136,15634,5804,0,0,0,0,0,0,0,0,0,0,0
338,129,-1162,15574,5866,0,0,0,0,0,0,0,0,0,0,0
339,129,-1150,15490,5762,0,0,0,0,0,0,0,0,0,0,0
340,129,-1152,15532,5740,0,0,0,0,0,0,0,0,0,0,0
341,129,-1132,15616,5754,0,0,0,0,0,0,0,0,0,0,0
342,129,-1008,15548,5838,0,0,0,0,0,0,0,0,0,0,0
343,129,-1182,15514,5748,0,0,0,0,0,0,0,0,0,0,0
344,129,-1136,15544,5780,0,0,0,0,0,0,0,0,0,0,0
345,129,-1130,15540,5792,0,0,0,0,0,0,0,0,0,0,0
346,129,-1070,15594,5804,0,0,0,0,0,0,0,0,0,0,0
347,129,-1146,15664,5744,0,0,0,0,0,0,0,0,0,0,0
348,129,-1044,15604,5908,0,0,0,0,0,0,0,0,0,0,0
349,129,-1098,15542,5774,0,0,0,0,0,0,0,0,0,0,0
350,129,-1140,15544,5724,0,0,0,0,0,0,0,0,0,0,0
351,129,-1062,15566,5814,0,0,0,0,0,0,0,0,0,0,0
352,129,-1118,15574,5746,0,0,0,0,0,0,0,0,0,0,0
353,129,-1068,15664,5736,0,0,0,0,0,0,0,0,0,0,0
354,129,-1144,15524,5832,0,0,0,0,0,0,0,0,0,0,0
355,129,-1164,15508,5792,0,0,0,0,0,0,0,0,0,0,0
356,129,-1092,15538,5818,0,0,0,0,0,0,0,0,0,0,0
357,129,-1118,15556,5718,0,0,0,0,0,0,0,0,0,0,0
358,129,-1182,15582,5954,0,0,0,0,0,0,0,0,0,0,0
359,129,-1166,15512,5752,0,0,0,0,0,0,0,0,0,0,0
360,129,-1080,15536,5808,0,0,0,0,0,0,0,0,0,0,0
361,129,-1128,15606,5758,0,0,0,0,0,0,0,0,0,0,0
