ProgrNum,PacketType,AccX,AccY,AccZ,GyrX,GyrY,GyrZ,MagX,MagY,MagZ,Q0,Q1,Q2,Q3,Vbat
0,129,1948,-126,16106,0,0,0,0,0,0,0,0,0,0,0
1,129,1464,180,16228,0,0,0,0,0,0,0,0,0,0,0
2,129,2054,340,16180,0,0,0,0,0,0,0,0,0,0,0
3,129,2176,682,16614,0,0,0,0,0,0,0,0,0,0,0
4,129,2376,454,16282,0,0,0,0,0,0,0,0,0,0,0
5,129,2182,300,16344,0,0,0,0,0,0,0,0,0,0,0
6,129,2280,348,16346,0,0,0,0,0,0,0,0,0,0,0
7,129,2112,252,16186,0,0,0,0,0,0,0,0,0,0,0
8,129,2010,388,16204,0,0,0,0,0,0,0,0,0,0,0
9,129,2176,392,16098,0,0,0,0,0,0,0,0,0,0,0
10,129,2360,308,15860,0,0,0,0,0,0,0,0,0,0,0
11,129,2426,420,16110,0,0,0,0,0,0,0,0,0,0,0
12,129,2044,440,16374,0,0,0,0,0,0,0,0,0,0,0
13,129,1984,300,16630,0,0,0,0,0,0,0,0,0,0,0
14,129,1998,70,16138,0,0,0,0,0,0,0,0,0,0,0
15,129,1976,570,16324,0,0,0,0,0,0,0,0,0,0,0
16,129,2214,576,16162,0,0,0,0,0,0,0,0,0,0,0
17,129,2440,442,15874,0,0,0,0,0,0,0,0,0,0,0
18,129,2274,574,16420,0,0,0,0,0,0,0,0,0,0,0
19,129,1966,264,15994,0,0,0,0,0,0,0,0,0,0,0
20,129,1926,26,16174,0,0,0,0,0,0,0,0,0,0,0
21,129,2084,146,16058,0,0,0,0,0,0,0,0,0,0,0
22,129,2140,136,16088,0,0,0,0,0,0,0,0,0,0,0
23,129,1970,44,16158,0,0,0,0,0,0,0,0,0,0,0
24,129,2268,144,15900,0,0,0,0,0,0,0,0,0,0,0
25,129,2066,770,16292,0,0,0,0,0,0,0,0,0,0,0
26,129,2094,526,16594,0,0,0,0,0,0,0,0,0,0,0
27,129,2224,502,16288,0,0,0,0,0,0,0,0,0,0,0
28,129,2136,362,16230,0,0,0,0,0,0,0,0,0,0,0
29,129,2108,282,15962,0,0,0,0,0,0,0,0,0,0,0
30,129,1862,236,16214,0,0,0,0,0,0,0,0,0,0,0
31,129,2054,346,16244,0,0,0,0,0,0,0,0,0,0,0
32,129,2186,314,16330,0,0,0,0,0,0,0,0,0,0,0
33,129,2014,468,16554,0,0,0,0,0,0,0,0,0,0,0
34,129,2174,294,15996,0,0,0,0,0,0,0,0,0,0,0
35,129,2240,438,15846,0,0,0,0,0,0,0,0,0,0,0
36,129,2050,442,16484,0,0,0,0,0,0,0,0,0,0,0
37,129,1804,222,16098,0,0,0,0,0,0,0,0,0,0,0
38,129,2018,134,16020,0,0,0,0,0,0,0,0,0,0,0
39,129,2060,106,15940,0,0,0,0,0,0,0,0,0,0,0
40,129,2106,290,16008,0,0,0,0,0,0,0,0,0,0,0
41,129,1802,536,16338,0,0,0,0,0,0,0,0,0,0,0
42,129,1836,626,16526,0,0,0,0,0,0,0,0,0,0,0
43,129,2088,536,16208,0,0,0,0,0,0,0,0,0,0,0
44,129,1930,214,16142,0,0,0,0,0,0,0,0,0,0,0
45,129,2094,6,15798,0,0,0,0,0,0,0,0,0,0,0
46,129,1832,126,16376,0,0,0,0,0,0,0,0,0,0,0
47,129,2220,428,16182,0,0,0,0,0,0,0,0,0,0,0
48,129,2108,428,16288,0,0,0,0,0,0,0,0,0,0,0
49,129,2082,154,15904,0,0,0,0,0,0,0,0,0,0,0
50,129,1708,150,16288,0,0,0,0,0,0,0,0,0,0,0
51,129,1902,224,16298,0,0,0,0,0,0,0,0,0,0,0
52,129,1810,278,16066,0,0,0,0,0,0,0,0,0,0,0
53,129,2064,148,16094,0,0,0,0,0,0,0,0,0,0,0
54,129,2204,330,16190,0,0,0,0,0,0,0,0,0,0,0
55,129,1758,274,16402,0,0,0,0,0,0,0,0,0,0,0
56,129,1842,146,16228,0,0,0,0,0,0,0,0,0,0,0
57,129,1804,184,16130,0,0,0,0,0,0,0,0,0,0,0
58,129,2148,202,15904,0,0,0,0,0,0,0,0,0,0,0
59,129,2054,454,16024,0,0,0,0,0,0,0,0,0,0,0
60,129,1942,272,16272,0,0,0,0,0,0,0,0,0,0,0
61,129,1980,14,16146,0,0,0,0,0,0,0,0,0,0,0
62,129,1876,200,16486,0,0,0,0,0,0,0,0,0,0,0
63,129,1930,412,16266,0,0,0,0,0,0,0,0,0,0,0
64,129,1928,392,16094,0,0,0,0,0,0,0,0,0,0,0
65,129,1930,312,16142,0,0,0,0,0,0,0,0,0,0,0
66,129,1858,202,16340,0,0,0,0,0,0,0,0,0,0,0
67,129,1908,112,15998,0,0,0,0,0,0,0,0,0,0,0
68,129,1632,202,16136,0,0,0,0,0,0,0,0,0,0,0
69,129,2086,220,16150,0,0,0,0,0,0,0,0,0,0,0
70,129,2012,214,16388,0,0,0,0,0,0,0,0,0,0,0
71,129,1692,338,16410,0,0,0,0,0,0,0,0,0,0,0
72,129,2084,112,15942,0,0,0,0,0,0,0,0,0,0,0
73,129,1854,102,16120,0,0,0,0,0,0,0,0,0,0,0
74,129,2142,256,16392,0,0,0,0,0,0,0,0,0,0,0
75,129,1862,266,16238,0,0,0,0,0,0,0,0,0,0,0
76,129,2108,280,16194,0,0,0,0,0,0,0,0,0,0,0
77,129,1978,132,16284,0,0,0,0,0,0,0,0,0,0,0
78,129,1788,94,16124,0,0,0,0,0,0,0,0,0,0,0
79,129,1994,22,15998,0,0,0,0,0,0,0,0,0,0,0
80,129,1504,162,16478,0,0,0,0,0,0,0,0,0,0,0
81,129,2086,366,16002,0,0,0,0,0,0,0,0,0,0,0
82,129,2112,98,15888,0,0,0,0,0,0,0,0,0,0,0
83,129,1766,334,16448,0,0,0,0,0,0,0,0,0,0,0
84,129,1908,58,16022,0,0,0,0,0,0,0,0,0,0,0
85,129,2104,54,16074,0,0,0,0,0,0,0,0,0,0,0
86,129,2114,142,16290,0,0,0,0,0,0,0,0,0,0,0
87,129,1900,238,16150,0,0,0,0,0,0,0,0,0,0,0
88,129,1988,116,15994,0,0,0,0,0,0,0,0,0,0,0
89,129,2046,62,16094,0,0,0,0,0,0,0,0,0,0,0
90,129,2206,114,16024,0,0,0,0,0,0,0,0,0,0,0
91,129,1780,292,16498,0,0,0,0,0,0,0,0,0,0,0
92,129,2178,58,16048,0,0,0,0,0,0,0,0,0,0,0
93,129,2002,140,16192,0,0,0,0,0,0,0,0,0,0,0
94,129,1950,204,16238,0,0,0,0,0,0,0,0,0,0,0
95,129,1996,220,16162,0,0,0,0,0,0,0,0,0,0,0
96,129,2106,318,16208,0,0,0,0,0,0,0,0,0,0,0
97,129,1982,56,15896,0,0,0,0,0,0,0,0,0,0,0
98,129,1788,50,16164,0,0,0,0,0,0,0,0,0,0,0
99,129,1912,98,16202,0,0,0,0,0,0,0,0,0,0,0
100,129,1976,258,15988,0,0,0,0,0,0,0,0,0,0,0
101,129,1954,432,16460,0,0,0,0,0,0,0,0,0,0,0
102,129,2098,48,16180,0,0,0,0,0,0,0,0,0,0,0
103,129,1874,-140,15982,0,0,0,0,0,0,0,0,0,0,0
104,129,1892,114,16200,0,0,0,0,0,0,0,0,0,0,0
105,129,2290,-28,16000,0,0,0,0,0,0,0,0,0,0,0
106,129,1902,216,16438,0,0,0,0,0,0,0,0,0,0,0
107,129,1796,208,16194,0,0,0,0,0,0,0,0,0,0,0
108,129,2038,16,15976,0,0,0,0,0,0,0,0,0,0,0
109,129,1776,154,16200,0,0,0,0,0,0,0,0,0,0,0
110,129,2086,184,16026,0,0,0,0,0,0,0,0,0,0,0
111,129,1892,398,16456,0,0,0,0,0,0,0,0,0,0,0
112,129,1984,22,16120,0,0,0,0,0,0,0,0,0,0,0
113,129,1822,228,16376,0,0,0,0,0,0,0,0,0,0,0
114,129,2056,186,15968,0,0,0,0,0,0,0,0,0,0,0
115,129,1820,218,16434,0,0,0,0,0,0,0,0,0,0,0
116,129,1756,166,16296,0,0,0,0,0,0,0,0,0,0,0
117,129,1988,-180,15970,0,0,0,0,0,0,0,0,0,0,0
118,129,2152,76,16038,0,0,0,0,0,0,0,0,0,0,0
119,129,1876,396,16098,0,0,0,0,0,0,0,0,0,0,0
120,129,2166,280,16166,0,0,0,0,0,0,0,0,0,0,0
121,129,1998,-40,16038,0,0,0,0,0,0,0,0,0,0,0
122,129,1766,24,16390,0,0,0,0,0,0,0,0,0,0,0
123,129,1834,160,16186,0,0,0,0,0,0,0,0,0,0,0
124,129,2406,-2,15902,0,0,0,0,0,0,0,0,0,0,0
125,129,1986,292,16434,0,0,0,0,0,0,0,0,0,0,0
126,129,2016,104,16214,0,0,0,0,0,0,0,0,0,0,0
127,129,1902,20,15878,0,0,0,0,0,0,0,0,0,0,0
128,129,1932,50,16124,0,0,0,0,0,0,0,0,0,0,0
129,129,1744,178,16188,0,0,0,0,0,0,0,0,0,0,0
130,129,1920,204,16240,0,0,0,0,0,0,0,0,0,0,0
131,129,1886,118,16176,0,0,0,0,0,0,0,0,0,0,0
132,129,1824,148,16176,0,0,0,0,0,0,0,0,0,0,0
133,129,2118,306,15912,0,0,0,0,0,0,0,0,0,0,0
134,129,1666,24,16210,0,0,0,0,0,0,0,0,0,0,0
135,129,1990,94,16142,0,0,0,0,0,0,0,0,0,0,0
136,129,1902,104,16192,0,0,0,0,0,0,0,0,0,0,0
137,129,2248,258,16180,0,0,0,0,0,0,0,0,0,0,0
138,129,1784,120,16252,0,0,0,0,0,0,0,0,0,0,0
139,129,1872,-98,15836,0,0,0,0,0,0,0,0,0,0,0
140,129,1916,90,16348,0,0,0,0,0,0,0,0,0,0,0
141,129,2002,210,16134,0,0,0,0,0,0,0,0,0,0,0
142,129,1960,300,16156,0,0,0,0,0,0,0,0,0,0,0
143,129,1914,90,15988,0,0,0,0,0,0,0,0,0,0,0
144,129,1812,166,16398,0,0,0,0,0,0,0,0,0,0,0
145,129,1832,14,16004,0,0,0,0,0,0,0,0,0,0,0
146,129,1816,344,16230,0,0,0,0,0,0,0,0,0,0,0
147,129,1974,100,16086,0,0,0,0,0,0,0,0,0,0,0
148,129,2068,-32,16040,0,0,0,0,0,0,0,0,0,0,0
149,129,2030,80,16212,0,0,0,0,0,0,0,0,0,0,0
150,129,1724,-20,16370,0,0,0,0,0,0,0,0,0,0,0
151,129,1826,302,16252,0,0,0,0,0,0,0,0,0,0,0
152,129,1750,266,15998,0,0,0,0,0,0,0,0,0,0,0
153,129,1954,274,16360,0,0,0,0,0,0,0,0,0,0,0
154,129,1674,-126,16122,0,0,0,0,0,0,0,0,0,0,0
155,129,1854,120,16510,0,0,0,0,0,0,0,0,0,0,0
156,129,2068,158,16136,0,0,0,0,0,0,0,0,0,0,0
157,129,2030,226,16154,0,0,0,0,0,0,0,0,0,0,0
158,129,1846,84,15922,0,0,0,0,0,0,0,0,0,0,0
159,129,1822,180,16124,0,0,0,0,0,0,0,0,0,0,0
160,129,1836,10,16400,0,0,0,0,0,0,0,0,0,0,0
161,129,1708,-146,16166,0,0,0,0,0,0,0,0,0,0,0
162,129,1948,32,16254,0,0,0,0,0,0,0,0,0,0,0
163,129,1868,300,16070,0,0,0,0,0,0,0,0,0,0,0
164,129,1974,174,16004,0,0,0,0,0,0,0,0,0,0,0
165,129,2092,214,16388,0,0,0,0,0,0,0,0,0,0,0
166,129,1888,-94,16018,0,0,0,0,0,0,0,0,0,0,0
167,129,2066,104,16092,0,0,0,0,0,0,0,0,0,0,0
168,129,1856,110,16248,0,0,0,0,0,0,0,0,0,0,0
169,129,1942,284,16234,0,0,0,0,0,0,0,0,0,0,0
170,129,2024,28,16246,0,0,0,0,0,0,0,0,0,0,0
171,129,1898,104,16252,0,0,0,0,0,0,0,0,0,0,0
172,129,2024,92,16012,0,0,0,0,0,0,0,0,0,0,0
173,129,1888,-66,16026,0,0,0,0,0,0,0,0,0,0,0
174,129,2038,-88,15924,0,0,0,0,0,0,0,0,0,0,0
175,129,1906,268,16382,0,0,0,0,0,0,0,0,0,0,0
176,129,2080,212,16162,0,0,0,0,0,0,0,0,0,0,0
177,129,1946,100,16124,0,0,0,0,0,0,0,0,0,0,0
178,129,1874,-30,16112,0,0,0,0,0,0,0,0,0,0,0
179,129,1916,54,16056,0,0,0,0,0,0,0,0,0,0,0
180,129,1936,156,16270,0,0,0,0,0,0,0,0,0,0,0
181,129,1838,180,16304,0,0,0,0,0,0,0,0,0,0,0
182,129,1966,284,16052,0,0,0,0,0,0,0,0,0,0,0
183,129,1918,254,16064,0,0,0,0,0,0,0,0,0,0,0
184,129,2236,-46,16056,0,0,0,0,0,0,0,0,0,0,0
185,129,1788,94,16452,0,0,0,0,0,0,0,0,0,0,0
186,129,1742,44,16066,0,0,0,0,0,0,0,0,0,0,0
187,129,2036,32,16174,0,0,0,0,0,0,0,0,0,0,0
188,129,1886,246,16356,0,0,0,0,0,0,0,0,0,0,0
189,129,1792,98,16170,0,0,0,0,0,0,0,0,0,0,0
190,129,2004,40,15880,0,0,0,0,0,0,0,0,0,0,0
191,129,1866,50,16208,0,0,0,0,0,0,0,0,0,0,0
192,129,1982,100,16278,0,0,0,0,0,0,0,0,0,0,0
193,129,1898,-100,16100,0,0,0,0,0,0,0,0,0,0,0
194,129,1972,-8,16054,0,0,0,0,0,0,0,0,0,0,0
195,129,1984,146,16184,0,0,0,0,0,0,0,0,0,0,0
196,129,1726,256,16134,0,0,0,0,0,0,0,0,0,0,0
197,129,1758,-36,16196,0,0,0,0,0,0,0,0,0,0,0
198,129,1862,42,16232,0,0,0,0,0,0,0,0,0,0,0
199,129,2000,226,16148,0,0,0,0,0,0,0,0,0,0,0
200,129,1848,216,16220,0,0,0,0,0,0,0,0,0,0,0
201,129,2006,72,16210,0,0,0,0,0,0,0,0,0,0,0
202,129,1802,36,16252,0,0,0,0,0,0,0,0,0,0,0
203,129,1800,72,16098,0,0,0,0,0,0,0,0,0,0,0
204,129,1868,104,16436,0,0,0,0,0,0,0,0,0,0,0
205,129,2192,22,15960,0,0,0,0,0,0,0,0,0,0,0
206,129,2002,64,15938,0,0,0,0,0,0,0,0,0,0,0
207,129,1880,66,16198,0,0,0,0,0,0,0,0,0,0,0
208,129,1914,98,16150,0,0,0,0,0,0,0,0,0,0,0
209,129,1932,322,16416,0,0,0,0,0,0,0,0,0,0,0
210,129,1920,80,16258,0,0,0,0,0,0,0,0,0,0,0
211,129,1850,-174,15852,0,0,0,0,0,0,0,0,0,0,0
212,129,2112,218,15940,0,0,0,0,0,0,0,0,0,0,0
213,129,1820,222,16376,0,0,0,0,0,0,0,0,0,0,0
214,129,1878,208,15914,0,0,0,0,0,0,0,0,0,0,0
215,129,1816,30,16100,0,0,0,0,0,0,0,0,0,0,0
216,129,1868,116,16124,0,0,0,0,0,0,0,0,0,0,0
217,129,1756,406,16398,0,0,0,0,0,0,0,0,0,0,0
218,129,1802,196,16262,0,0,0,0,0,0,0,0,0,0,0
219,129,2108,-122,15872,0,0,0,0,0,0,0,0,0,0,0
220,129,1838,-40,16268,0,0,0,0,0,0,0,0,0,0,0
221,129,1998,88,16038,0,0,0,0,0,0,0,0,0,0,0
222,129,1602,318,16252,0,0,0,0,0,0,0,0,0,0,0
223,129,1892,54,15816,0,0,0,0,0,0,0,0,0,0,0
224,129,1906,-80,16248,0,0,0,0,0,0,0,0,0,0,0
225,129,1698,138,16174,0,0,0,0,0,0,0,0,0,0,0
226,129,1796,174,16230,0,0,0,0,0,0,0,0,0,0,0
227,129,1850,142,16228,0,0,0,0,0,0,0,0,0,0,0
228,129,1870,298,16376,0,0,0,0,0,0,0,0,0,0,0
229,129,2058,248,16066,0,0,0,0,0,0,0,0,0,0,0
230,129,2098,-138,15954,0,0,0,0,0,0,0,0,0,0,0
231,129,1782,274,16374,0,0,0,0,0,0,0,0,0,0,0
232,129,1988,-20,16100,0,0,0,0,0,0,0,0,0,0,0
233,129,1838,16,16482,0,0,0,0,0,0,0,0,0,0,0
234,129,1856,216,16236,0,0,0,0,0,0,0,0,0,0,0
235,129,2048,2,15910,0,0,0,0,0,0,0,0,0,0,0
236,129,2088,142,16156,0,0,0,0,0,0,0,0,0,0,0
237,129,1958,-88,16016,0,0,0,0,0,0,0,0,0,0,0
238,129,1638,154,16442,0,0,0,0,0,0,0,0,0,0,0
239,129,1916,310,16332,0,0,0,0,0,0,0,0,0,0,0
240,129,2030,162,16032,0,0,0,0,0,0,0,0,0,0,0
241,129,1836,64,15832,0,0,0,0,0,0,0,0,0,0,0
242,129,1976,-34,16042,0,0,0,0,0,0,0,0,0,0,0
243,129,1696,104,16260,0,0,0,0,0,0,0,0,0,0,0
244,129,1846,206,16600,0,0,0,0,0,0,0,0,0,0,0
245,129,1958,74,15938,0,0,0,0,0,0,0,0,0,0,0
246,129,1896,160,16100,0,0,0,0,0,0,0,0,0,0,0
247,129,2096,80,15880,0,0,0,0,0,0,0,0,0,0,0
248,129,2122,210,16310,0,0,0,0,0,0,0,0,0,0,0
249,129,2012,-132,16156,0,0,0,0,0,0,0,0,0,0,0
250,129,1774,134,16490,0,0,0,0,0,0,0,0,0,0,0
251,129,1856,164,16184,0,0,0,0,0,0,0,0,0,0,0
252,129,2022,282,16506,0,0,0,0,0,0,0,0,0,0,0
253,129,1926,282,16000,0,0,0,0,0,0,0,0,0,0,0
254,129,1816,216,16024,0,0,0,0,0,0,0,0,0,0,0
255,129,1982,276,16184,0,0,0,0,0,0,0,0,0,0,0
256,129,2034,-8,16012,0,0,0,0,0,0,0,0,0,0,0
257,129,1982,-168,15782,0,0,0,0,0,0,0,0,0,0,0
258,129,1756,138,16410,0,0,0,0,0,0,0,0,0,0,0
259,129,2130,228,16080,0,0,0,0,0,0,0,0,0,0,0
260,129,2104,368,16248,0,0,0,0,0,0,0,0,0,0,0
261,129,1938,64,15972,0,0,0,0,0,0,0,0,0,0,0
262,129,1700,114,16154,0,0,0,0,0,0,0,0,0,0,0
263,129,1904,132,16156,0,0,0,0,0,0,0,0,0,0,0
264,129,2156,362,16268,0,0,0,0,0,0,0,0,0,0,0
265,129,1922,-8,16100,0,0,0,0,0,0,0,0,0,0,0
266,129,1982,-34,16148,0,0,0,0,0,0,0,0,0,0,0
267,129,1968,194,16350,0,0,0,0,0,0,0,0,0,0,0
268,129,2086,48,16146,0,0,0,0,0,0,0,0,0,0,0
269,129,2200,128,16148,0,0,0,0,0,0,0,0,0,0,0
270,129,1954,102,16280,0,0,0,0,0,0,0,0,0,0,0
271,129,1728,64,16384,0,0,0,0,0,0,0,0,0,0,0
272,129,1876,16,16242,0,0,0,0,0,0,0,0,0,0,0
273,129,2098,-26,15884,0,0,0,0,0,0,0,0,0,0,0
274,129,2138,320,16330,0,0,0,0,0,0,0,0,0,0,0
275,129,2154,224,15904,0,0,0,0,0,0,0,0,0,0,0
276,129,1864,110,16144,0,0,0,0,0,0,0,0,0,0,0
277,129,1914,-36,16040,0,0,0,0,0,0,0,0,0,0,0
278,129,1782,102,16388,0,0,0,0,0,0,0,0,0,0,0
279,129,1834,186,16394,0,0,0,0,0,0,0,0,0,0,0
280,129,2124,144,15960,0,0,0,0,0,0,0,0,0,0,0
281,129,2066,136,16038,0,0,0,0,0,0,0,0,0,0,0
282,129,1930,228,16246,0,0,0,0,0,0,0,0,0,0,0
283,129,1862,84,16362,0,0,0,0,0,0,0,0,0,0,0
284,129,2068,26,16186,0,0,0,0,0,0,0,0,0,0,0
285,129,1916,104,16248,0,0,0,0,0,0,0,0,0,0,0
286,129,1830,210,16164,0,0,0,0,0,0,0,0,0,0,0
287,129,1924,102,15904,0,0,0,0,0,0,0,0,0,0,0
288,129,1992,10,15910,0,0,0,0,0,0,0,0,0,0,0
289,129,1812,32,16134,0,0,0,0,0,0,0,0,0,0,0
290,129,1884,160,16208,0,0,0,0,0,0,0,0,0,0,0
291,129,1816,160,16348,0,0,0,0,0,0,0,0,0,0,0
292,129,2198,208,16000,0,0,0,0,0,0,0,0,0,0,0
293,129,2004,168,16040,0,0,0,0,0,0,0,0,0,0,0
294,129,1728,126,16302,0,0,0,0,0,0,0,0,0,0,0
295,129,1970,212,16316,0,0,0,0,0,0,0,0,0,0,0
296,129,2046,-78,16048,0,0,0,0,0,0,0,0,0,0,0
297,129,1894,286,16336,0,0,0,0,0,0,0,0,0,0,0
298,129,2302,162,16038,0,0,0,0,0,0,0,0,0,0,0
299,129,2008,46,16240,0,0,0,0,0,0,0,0,0,0,0
300,129,1768,250,16420,0,0,0,0,0,0,0,0,0,0,0
301,129,2022,68,15866,0,0,0,0,0,0,0,0,0,0,0
302,129,2380,92,16040,0,0,0,0,0,0,0,0,0,0,0
303,129,2038,110,16066,0,0,0,0,0,0,0,0,0,0,0
304,129,1642,190,16524,0,0,0,0,0,0,0,0,0,0,0
305,129,1758,16,16218,0,0,0,0,0,0,0,0,0,0,0
306,129,1848,162,16228,0,0,0,0,0,0,0,0,0,0,0
307,129,2170,214,16120,0,0,0,0,0,0,0,0,0,0,0
308,129,1868,334,16336,0,0,0,0,0,0,0,0,0,0,0
309,129,1970,146,16138,0,0,0,0,0,0,0,0,0,0,0
310,129,1946,-80,15876,0,0,0,0,0,0,0,0,0,0,0
311,129,1866,56,16214,0,0,0,0,0,0,0,0,0,0,0
312,129,1954,100,16126,0,0,0,0,0,0,0,0,0,0,0
313,129,1964,114,16126,0,0,0,0,0,0,0,0,0,0,0
314,129,2184,276,16140,0,0,0,0,0,0,0,0,0,0,0
315,129,2058,290,16284,0,0,0,0,0,0,0,0,0,0,0
316,129,1998,128,16144,0,0,0,0,0,0,0,0,0,0,0
317,129,1908,20,16228,0,0,0,0,0,0,0,0,0,0,0
318,129,1974,68,16290,0,0,0,0,0,0,0,0,0,0,0
319,129,2206,162,15978,0,0,0,0,0,0,0,0,0,0,0
320,129,2126,156,16018,0,0,0,0,0,0,0,0,0,0,0
321,129,1924,214,16118,0,0,0,0,0,0,0,0,0,0,0
322,129,1874,234,16292,0,0,0,0,0,0,0,0,0,0,0
323,129,1918,172,16334,0,0,0,0,0,0,0,0,0,0,0
324,129,1934,174,16236,0,0,0,0,0,0,0,0,0,0,0
325,129,2050,126,16056,0,0,0,0,0,0,0,0,0,0,0
326,129,2280,114,16068,0,0,0,0,0,0,0,0,0,0,0
327,129,2054,300,16318,0,0,0,0,0,0,0,0,0,0,0
328,129,2276,148,15960,0,0,0,0,0,0,0,0,0,0,0
329,129,1788,126,16648,0,0,0,0,0,0,0,0,0,0,0
330,129,1886,118,16056,0,0,0,0,0,0,0,0,0,0,0
331,129,2058,294,16194,0,0,0,0,0,0,0,0,0,0,0
332,129,2208,286,16032,0,0,0,0,0,0,0,0,0,0,0
333,129,2180,102,16080,0,0,0,0,0,0,0,0,0,0,0
334,129,1846,272,16506,0,0,0,0,0,0,0,0,0,0,0
335,129,1842,294,16294,0,0,0,0,0,0,0,0,0,0,0
336,129,1884,250,16394,0,0,0,0,0,0,0,0,0,0,0
337,129,2168,-28,15772,0,0,0,0,0,0,0,0,0,0,0
338,129,2004,36,16056,0,0,0,0,0,0,0,0,0,0,0
339,129,2062,332,16344,0,0,0,0,0,0,0,0,0,0,0
340,129,1942,220,16126,0,0,0,0,0,0,0,0,0,0,0
341,129,1902,300,16304,0,0,0,0,0,0,0,0,0,0,0
342,129,2168,108,16050,0,0,0,0,0,0,0,0,0,0,0
343,129,1892,48,16102,0,0,0,0,0,0,0,0,0,0,0
344,129,1848,286,16532,0,0,0,0,0,0,0,0,0,0,0
345,129,1850,288,16372,0,0,0,0,0,0,0,0,0,0,0
346,129,2160,64,15846,0,0,0,0,0,0,0,0,0,0,0
347,129,2104,226,16348,0,0,0,0,0,0,0,0,0,0,0
348,129,1990,-94,16030,0,0,0,0,0,0,0,0,0,0,0
349,129,1992,210,16372,0,0,0,0,0,0,0,0,0,0,0
350,129,2056,-6,15962,0,0,0,0,0,0,0,0,0,0,0
351,129,1866,262,16276,0,0,0,0,0,0,0,0,0,0,0
352,129,1950,256,16246,0,0,0,0,0,0,0,0,0,0,0
353,129,2094,28,15922,0,0,0,0,0,0,0,0,0,0,0
354,129,1930,44,16304,0,0,0,0,0,0,0,0,0,0,0
355,129,2114,86,16176,0,0,0,0,0,0,0,0,0,0,0
356,129,2104,272,16222,0,0,0,0,0,0,0,0,0,0,0
357,129,1952,142,16176,0,0,0,0,0,0,0,0,0,0,0
358,129,2198,26,16318,0,0,0,0,0,0,0,0,0,0,0
359,129,2086,-30,16226,0,0,0,0,0,0,0,0,0,0,0
360,129,2048,30,16182,0,0,0,0,0,0,0,0,0,0,0
361,129,2044,140,16080,0,0,0,0,0,0,0,0,0,0,0
362,129,1892,116,16186,0,0,0,0,0,0,0,0,0,0,0
363,129,1996,178,16150,0,0,0,0,0,0,0,0,0,0,0
364,129,2020,104,16082,0,0,0,0,0,0,0,0,0,0,0
365,129,1952,178,16096,0,0,0,0,0,0,0,0,0,0,0
366,129,1938,204,15982,0,0,0,0,0,0,0,0,0,0,0
367,129,2086,368,16204,0,0,0,0,0,0,0,0,0,0,0
368,129,2030,202,16188,0,0,0,0,0,0,0,0,0,0,0
369,129,1960,50,16088,0,0,0,0,0,0,0,0,0,0,0
370,129,2066,178,16120,0,0,0,0,0,0,0,0,0,0,0
371,129,1900,62,16204,0,0,0,0,0,0,0,0,0,0,0
372,129,1764,258,16198,0,0,0,0,0,0,0,0,0,0,0
373,129,1902,280,16224,0,0,0,0,0,0,0,0,0,0,0
374,129,2276,98,15842,0,0,0,0,0,0,0,0,0,0,0
375,129,2148,40,15962,0,0,0,0,0,0,0,0,0,0,0
376,129,1896,96,16306,0,0,0,0,0,0,0,0,0,0,0
377,129,2048,58,16366,0,0,0,0,0,0,0,0,0,0,0
378,129,1912,156,16204,0,0,0,0,0,0,0,0,0,0,0
379,129,1888,202,16164,0,0,0,0,0,0,0,0,0,0,0
380,129,2068,202,15902,0,0,0,0,0,0,0,0,0,0,0
381,129,1972,230,15858,0,0,0,0,0,0,0,0,0,0,0
382,129,1792,120,16270,0,0,0,0,0,0,0,0,0,0,0
383,129,1868,62,16118,0,0,0,0,0,0,0,0,0,0,0
384,129,2090,34,15954,0,0,0,0,0,0,0,0,0,0,0
385,129,1920,266,16058,0,0,0,0,0,0,0,0,0,0,0
386,129,2058,350,16348,0,0,0,0,0,0,0,0,0,0,0
387,129,2318,114,15628,0,0,0,0,0,0,0,0,0,0,0
388,129,1994,256,16340,0,0,0,0,0,0,0,0,0,0,0
389,129,2122,28,16038,0,0,0,0,0,0,0,0,0,0,0
390,129,2274,52,16262,0,0,0,0,0,0,0,0,0,0,0
391,129,2140,90,16290,0,0,0,0,0,0,0,0,0,0,0
392,129,1920,-28,15954,0,0,0,0,0,0,0,0,0,0,0
393,129,2092,246,15896,0,0,0,0,0,0,0,0,0,0,0
394,129,1920,574,16340,0,0,0,0,0,0,0,0,0,0,0
395,129,1842,364,15992,0,0,0,0,0,0,0,0,0,0,0
396,129,1940,90,16234,0,0,0,0,0,0,0,0,0,0,0
397,129,2214,-156,15902,0,0,0,0,0,0,0,0,0,0,0
398,129,1526,352,16334,0,0,0,0,0,0,0,0,0,0,0
399,129,1896,168,16036,0,0,0,0,0,0,0,0,0,0,0
400,129,1910,308,16138,0,0,0,0,0,0,0,0,0,0,0
401,129,2008,266,16068,0,0,0,0,0,0,0,0,0,0,0
402,129,2246,624,16192,0,0,0,0,0,0,0,0,0,0,0
403,129,2056,476,16022,0,0,0,0,0,0,0,0,0,0,0
404,129,1830,692,16104,0,0,0,0,0,0,0,0,0,0,0
405,129,2400,554,16658,0,0,0,0,0,0,0,0,0,0,0
406,129,1908,858,15824,0,0,0,0,0,0,0,0,0,0,0
407,129,2442,632,16984,0,0,0,0,0,0,0,0,0,0,0
408,129,2528,316,15566,0,0,0,0,0,0,0,0,0,0,0
409,129,2120,652,16388,0,0,0,0,0,0,0,0,0,0,0
410,129,2066,1110,16250,0,0,0,0,0,0,0,0,0,0,0
411,129,2072,1088,16060,0,0,0,0,0,0,0,0,0,0,0
412,129,1942,1254,16290,0,0,0,0,0,0,0,0,0,0,0
413,129,2246,972,15788,0,0,0,0,0,0,0,0,0,0,0
414,129,2040,814,15974,0,0,0,0,0,0,0,0,0,0,0
415,129,1790,778,16002,0,0,0,0,0,0,0,0,0,0,0
416,129,2074,1082,15984,0,0,0,0,0,0,0,0,0,0,0
417,129,2040,1208,16144,0,0,0,0,0,0,0,0,0,0,0
418,129,1824,1556,16506,0,0,0,0,0,0,0,0,0,0,0
419,129,1810,1596,15936,0,0,0,0,0,0,0,0,0,0,0
420,129,1626,1596,16336,0,0,0,0,0,0,0,0,0,0,0
421,129,2230,1812,16054,0,0,0,0,0,0,0,0,0,0,0
422,129,2282,1822,16174,0,0,0,0,0,0,0,0,0,0,0
423,129,2222,1736,15614,0,0,0,0,0,0,0,0,0,0,0
424,129,2004,2122,16082,0,0,0,0,0,0,0,0,0,0,0
425,129,2136,2132,15788,0,0,0,0,0,0,0,0,0,0,0
426,129,2354,2348,15834,0,0,0,0,0,0,0,0,0,0,0
427,129,2282,2716,15982,0,0,0,0,0,0,0,0,0,0,0
428,129,2150,3290,15634,0,0,0,0,0,0,0,0,0,0,0
429,129,2112,3562,16210,0,0,0,0,0,0,0,0,0,0,0
430,129,2510,3452,16032,0,0,0,0,0,0,0,0,0,0,0
431,129,2256,3948,14500,0,0,0,0,0,0,0,0,0,0,0
432,129,2380,4292,14442,0,0,0,0,0,0,0,0,0,0,0
433,129,1438,5028,13824,0,0,0,0,0,0,0,0,0,0,0
434,129,2326,5344,15262,0,0,0,0,0,0,0,0,0,0,0
435,129,3162,6054,17268,0,0,0,0,0,0,0,0,0,0,0
436,129,2248,7028,13302,0,0,0,0,0,0,0,0,0,0,0
437,129,2486,7718,13426,0,0,0,0,0,0,0,0,0,0,0
438,129,2022,8936,16898,0,0,0,0,0,0,0,0,0,0,0
439,129,2526,8854,12796,0,0,0,0,0,0,0,0,0,0,0
440,129,2894,8848,12904,0,0,0,0,0,0,0,0,0,0,0
441,129,2080,8302,12438,0,0,0,0,0,0,0,0,0,0,0
442,129,2688,8458,11324,0,0,0,0,0,0,0,0,0,0,0
443,129,2080,9694,13192,0,0,0,0,0,0,0,0,0,0,0
444,129,1892,11328,13428,0,0,0,0,0,0,0,0,0,0,0
445,129,2176,11322,12032,0,0,0,0,0,0,0,0,0,0,0
446,129,-196,12242,11176,0,0,0,0,0,0,0,0,0,0,0
447,129,1542,11696,11454,0,0,0,0,0,0,0,0,0,0,0
448,129,2884,11556,10088,0,0,0,0,0,0,0,0,0,0,0
449,129,2054,13170,10930,0,0,0,0,0,0,0,0,0,0,0
450,129,1962,14438,10488,0,0,0,0,0,0,0,0,0,0,0
451,129,1510,13368,8888,0,0,0,0,0,0,0,0,0,0,0
452,129,2358,13258,8046,0,0,0,0,0,0,0,0,0,0,0
453,129,3588,13316,7408,0,0,0,0,0,0,0,0,0,0,0
454,129,2984,14492,8164,0,0,0,0,0,0,0,0,0,0,0
455,129,1342,16004,5568,0,0,0,0,0,0,0,0,0,0,0
456,129,2908,15646,5352,0,0,0,0,0,0,0,0,0,0,0
457,129,644,14996,7386,0,0,0,0,0,0,0,0,0,0,0
458,129,1884,15752,2944,0,0,0,0,0,0,0,0,0,0,0
459,129,3032,14870,3526,0,0,0,0,0,0,0,0,0,0,0
460,129,2678,15786,3478,0,0,0,0,0,0,0,0,0,0,0
461,129,3102,16094,2564,0,0,0,0,0,0,0,0,0,0,0
462,129,2404,17400,2912,0,0,0,0,0,0,0,0,0,0,0
463,129,514,17364,918,0,0,0,0,0,0,0,0,0,0,0
464,129,2614,14602,-1746,0,0,0,0,0,0,0,0,0,0,0
465,129,2810,15892,380,0,0,0,0,0,0,0,0,0,0,0
466,129,4372,14842,1588,0,0,0,0,0,0,0,0,0,0,0
467,129,3236,16296,-1100,0,0,0,0,0,0,0,0,0,0,0
468,129,3212,15840,996,0,0,0,0,0,0,0,0,0,0,0
469,129,3198,16888,-4586,0,0,0,0,0,0,0,0,0,0,0
470,129,3456,15674,-3426,0,0,0,0,0,0,0,0,0,0,0
471,129,4422,15486,-1970,0,0,0,0,0,0,0,0,0,0,0
472,129,3922,15474,-3888,0,0,0,0,0,0,0,0,0,0,0
473,129,3260,15844,-3210,0,0,0,0,0,0,0,0,0,0,0
474,129,4064,16272,-3198,0,0,0,0,0,0,0,0,0,0,0
475,129,3876,16416,-4250,0,0,0,0,0,0,0,0,0,0,0
476,129,3256,15718,-2928,0,0,0,0,0,0,0,0,0,0,0
477,129,2958,15406,-2738,0,0,0,0,0,0,0,0,0,0,0
478,129,2804,15600,-2788,0,0,0,0,0,0,0,0,0,0,0
479,129,2808,15568,-2794,0,0,0,0,0,0,0,0,0,0,0
480,129,3010,15782,-2664,0,0,0,0,0,0,0,0,0,0,0
481,129,2772,15684,-2550,0,0,0,0,0,0,0,0,0,0,0
482,129,3124,16158,-2712,0,0,0,0,0,0,0,0,0,0,0
483,129,3090,16048,-2608,0,0,0,0,0,0,0,0,0,0,0
484,129,2964,16178,-2770,0,0,0,0,0,0,0,0,0,0,0
485,129,3048,16004,-2726,0,0,0,0,0,0,0,0,0,0,0
486,129,3136,15880,-2518,0,0,0,0,0,0,0,0,0,0,0
487,129,3278,15368,-2328,0,0,0,0,0,0,0,0,0,0,0
488,129,3382,15298,-2300,0,0,0,0,0,0,0,0,0,0,0
489,129,3346,15822,-2550,0,0,0,0,0,0,0,0,0,0,0
490,129,3084,16178,-2314,0,0,0,0,0,0,0,0,0,0,0
491,129,2882,16376,-2046,0,0,0,0,0,0,0,0,0,0,0
492,129,3398,16178,-1746,0,0,0,0,0,0,0,0,0,0,0
493,129,3030,15990,-1592,0,0,0,0,0,0,0,0,0,0,0
494,129,3324,15434,-1324,0,0,0,0,0,0,0,0,0,0,0
495,129,2624,15902,-1184,0,0,0,0,0,0,0,0,0,0,0
496,129,2826,16520,-566,0,0,0,0,0,0,0,0,0,0,0
497,129,3678,15956,-954,0,0,0,0,0,0,0,0,0,0,0
498,129,2220,16594,-2520,0,0,0,0,0,0,0,0,0,0,0
499,129,3940,15598,-422,0,0,0,0,0,0,0,0,0,0,0
500,129,3190,16092,-1144,0,0,0,0,0,0,0,0,0,0,0
501,129,3298,16510,-1038,0,0,0,0,0,0,0,0,0,0,0
502,129,4060,16034,-1402,0,0,0,0,0,0,0,0,0,0,0
503,129,3552,16176,-1144,0,0,0,0,0,0,0,0,0,0,0
504,129,3586,15956,-1034,0,0,0,0,0,0,0,0,0,0,0
505,129,4092,15492,-1174,0,0,0,0,0,0,0,0,0,0,0
506,129,3672,16038,-556,0,0,0,0,0,0,0,0,0,0,0
507,129,2868,16716,-632,0,0,0,0,0,0,0,0,0,0,0
508,129,3544,16182,-482,0,0,0,0,0,0,0,0,0,0,0
509,129,3304,15588,-438,0,0,0,0,0,0,0,0,0,0,0
510,129,3200,15802,-378,0,0,0,0,0,0,0,0,0,0,0
511,129,3532,15906,-536,0,0,0,0,0,0,0,0,0,0,0
512,129,3532,15806,-506,0,0,0,0,0,0,0,0,0,0,0
513,129,3462,16362,-386,0,0,0,0,0,0,0,0,0,0,0
514,129,3614,15958,-604,0,0,0,0,0,0,0,0,0,0,0
515,129,3644,15786,-600,0,0,0,0,0,0,0,0,0,0,0
516,129,3796,15930,-552,0,0,0,0,0,0,0,0,0,0,0
517,129,3936,15634,-786,0,0,0,0,0,0,0,0,0,0,0
518,129,3362,16440,-312,0,0,0,0,0,0,0,0,0,0,0
519,129,3742,16350,-312,0,0,0,0,0,0,0,0,0,0,0
520,129,3820,16142,-444,0,0,0,0,0,0,0,0,0,0,0
521,129,3494,15888,-282,0,0,0,0,0,0,0,0,0,0,0
522,129,3840,15760,-684,0,0,0,0,0,0,0,0,0,0,0
523,129,3750,15876,-480,0,0,0,0,0,0,0,0,0,0,0
524,129,3700,15832,-224,0,0,0,0,0,0,0,0,0,0,0
525,129,3480,16054,-226,0,0,0,0,0,0,0,0,0,0,0
526,129,3868,16094,-122,0,0,0,0,0,0,0,0,0,0,0
527,129,3890,15906,-224,0,0,0,0,0,0,0,0,0,0,0
528,129,3612,15784,-440,0,0,0,0,0,0,0,0,0,0,0
529,129,3858,16174,-476,0,0,0,0,0,0,0,0,0,0,0
530,129,3878,15736,-640,0,0,0,0,0,0,0,0,0,0,0
531,129,3726,15906,-394,0,0,0,0,0,0,0,0,0,0,0
532,129,3862,15786,-468,0,0,0,0,0,0,0,0,0,0,0
533,129,3824,15856,-408,0,0,0,0,0,0,0,0,0,0,0
534,129,3510,15832,-142,0,0,0,0,0,0,0,0,0,0,0
535,129,3464,16328,-38,0,0,0,0,0,0,0,0,0,0,0
536,129,4028,16082,-154,0,0,0,0,0,0,0,0,0,0,0
537,129,3866,15548,-468,0,0,0,0,0,0,0,0,0,0,0
538,129,4142,15566,-306,0,0,0,0,0,0,0,0,0,0,0
539,129,3914,16030,-36,0,0,0,0,0,0,0,0,0,0,0
540,129,3724,16004,-176,0,0,0,0,0,0,0,0,0,0,0
541,129,3984,16230,-376,0,0,0,0,0,0,0,0,0,0,0
542,129,4096,16116,-4,0,0,0,0,0,0,0,0,0,0,0
543,129,3894,15812,-82,0,0,0,0,0,0,0,0,0,0,0
544,129,3922,15970,-374,0,0,0,0,0,0,0,0,0,0,0
545,129,3900,15582,-448,0,0,0,0,0,0,0,0,0,0,0
546,129,4436,15346,-428,0,0,0,0,0,0,0,0,0,0,0
547,129,3726,15986,-144,0,0,0,0,0,0,0,0,0,0,0
548,129,3682,16486,120,0,0,0,0,0,0,0,0,0,0,0
549,129,3894,16256,-400,0,0,0,0,0,0,0,0,0,0,0
550,129,3360,16090,-26,0,0,0,0,0,0,0,0,0,0,0
551,129,3876,15712,-248,0,0,0,0,0,0,0,0,0,0,0
552,129,4784,15280,-372,0,0,0,0,0,0,0,0,0,0,0
553,129,4828,15602,-564,0,0,0,0,0,0,0,0,0,0,0
554,129,3802,16230,170,0,0,0,0,0,0,0,0,0,0,0
555,129,3998,15744,-322,0,0,0,0,0,0,0,0,0,0,0
556,129,3808,15830,-74,0,0,0,0,0,0,0,0,0,0,0
557,129,3624,16298,48,0,0,0,0,0,0,0,0,0,0,0
558,129,3584,15882,-2,0,0,0,0,0,0,0,0,0,0,0
559,129,4200,15588,-68,0,0,0,0,0,0,0,0,0,0,0
560,129,3942,15764,90,0,0,0,0,0,0,0,0,0,0,0
561,129,3866,16184,56,0,0,0,0,0,0,0,0,0,0,0
562,129,3860,15950,54,0,0,0,0,0,0,0,0,0,0,0
563,129,3874,15960,44,0,0,0,0,0,0,0,0,0,0,0
564,129,3888,15666,-10,0,0,0,0,0,0,0,0,0,0,0
565,129,4086,15984,86,0,0,0,0,0,0,0,0,0,0,0
566,129,4272,16006,-30,0,0,0,0,0,0,0,0,0,0,0
567,129,4078,15774,-168,0,0,0,0,0,0,0,0,0,0,0
568,129,3780,15592,-80,0,0,0,0,0,0,0,0,0,0,0
569,129,4170,15872,4,0,0,0,0,0,0,0,0,0,0,0
570,129,4122,16010,-52,0,0,0,0,0,0,0,0,0,0,0
571,129,3914,16098,-44,0,0,0,0,0,0,0,0,0,0,0
572,129,4314,15386,-178,0,0,0,0,0,0,0,0,0,0,0
573,129,4188,15770,94,0,0,0,0,0,0,0,0,0,0,0
574,129,4100,15874,192,0,0,0,0,0,0,0,0,0,0,0
575,129,4094,16028,68,0,0,0,0,0,0,0,0,0,0,0
576,129,4110,15762,72,0,0,0,0,0,0,0,0,0,0,0
577,129,3946,16000,154,0,0,0,0,0,0,0,0,0,0,0
578,129,4008,15954,168,0,0,0,0,0,0,0,0,0,0,0
579,129,4114,15754,-292,0,0,0,0,0,0,0,0,0,0,0
580,129,3792,15986,96,0,0,0,0,0,0,0,0,0,0,0
581,129,4132,15688,-114,0,0,0,0,0,0,0,0,0,0,0
582,129,4056,15836,32,0,0,0,0,0,0,0,0,0,0,0
583,129,3868,15728,232,0,0,0,0,0,0,0,0,0,0,0
584,129,4130,16090,88,0,0,0,0,0,0,0,0,0,0,0
585,129,4206,15780,-90,0,0,0,0,0,0,0,0,0,0,0
586,129,3870,15936,126,0,0,0,0,0,0,0,0,0,0,0
587,129,4330,15960,386,0,0,0,0,0,0,0,0,0,0,0
588,129,3968,16050,352,0,0,0,0,0,0,0,0,0,0,0
589,129,4062,16174,218,0,0,0,0,0,0,0,0,0,0,0
590,129,3984,15718,12,0,0,0,0,0,0,0,0,0,0,0
591,129,3914,15730,-200,0,0,0,0,0,0,0,0,0,0,0
592,129,4040,15688,290,0,0,0,0,0,0,0,0,0,0,0
593,129,4166,15920,86,0,0,0,0,0,0,0,0,0,0,0
594,129,4252,16142,190,0,0,0,0,0,0,0,0,0,0,0
595,129,3920,15902,344,0,0,0,0,0,0,0,0,0,0,0
596,129,3756,16648,632,0,0,0,0,0,0,0,0,0,0,0
597,129,3986,16008,126,0,0,0,0,0,0,0,0,0,0,0
598,129,4222,15718,66,0,0,0,0,0,0,0,0,0,0,0
599,129,4016,15542,50,0,0,0,0,0,0,0,0,0,0,0
600,129,4102,15522,204,0,0,0,0,0,0,0,0,0,0,0
601,129,3982,15850,406,0,0,0,0,0,0,0,0,0,0,0
602,129,4442,15598,122,0,0,0,0,0,0,0,0,0,0,0
603,129,4134,16158,164,0,0,0,0,0,0,0,0,0,0,0
604,129,3912,16270,296,0,0,0,0,0,0,0,0,0,0,0
605,129,4278,15852,12,0,0,0,0,0,0,0,0,0,0,0
606,129,4348,15850,486,0,0,0,0,0,0,0,0,0,0,0
607,129,4132,16012,736,0,0,0,0,0,0,0,0,0,0,0
608,129,4104,15632,526,0,0,0,0,0,0,0,0,0,0,0
609,129,4184,15790,202,0,0,0,0,0,0,0,0,0,0,0
610,129,4214,15974,354,0,0,0,0,0,0,0,0,0,0,0
611,129,4050,15442,130,0,0,0,0,0,0,0,0,0,0,0
612,129,4242,15906,280,0,0,0,0,0,0,0,0,0,0,0
613,129,4308,15860,222,0,0,0,0,0,0,0,0,0,0,0
614,129,4200,16222,338,0,0,0,0,0,0,0,0,0,0,0
615,129,4036,16018,366,0,0,0,0,0,0,0,0,0,0,0
616,129,4146,15796,192,0,0,0,0,0,0,0,0,0,0,0
617,129,4186,15704,208,0,0,0,0,0,0,0,0,0,0,0
618,129,4102,15804,626,0,0,0,0,0,0,0,0,0,0,0
619,129,4340,16002,334,0,0,0,0,0,0,0,0,0,0,0
620,129,3840,16010,706,0,0,0,0,0,0,0,0,0,0,0
621,129,3810,15792,742,0,0,0,0,0,0,0,0,0,0,0
622,129,4366,15544,504,0,0,0,0,0,0,0,0,0,0,0
623,129,4306,15552,520,0,0,0,0,0,0,0,0,0,0,0
624,129,4324,15326,462,0,0,0,0,0,0,0,0,0,0,0
625,129,4196,15656,764,0,0,0,0,0,0,0,0,0,0,0
626,129,3920,16198,932,0,0,0,0,0,0,0,0,0,0,0
627,129,4202,15980,582,0,0,0,0,0,0,0,0,0,0,0
628,129,4370,15458,622,0,0,0,0,0,0,0,0,0,0,0
629,129,4174,15508,664,0,0,0,0,0,0,0,0,0,0,0
630,129,4210,15588,384,0,0,0,0,0,0,0,0,0,0,0
631,129,4012,15790,466,0,0,0,0,0,0,0,0,0,0,0
632,129,4136,16026,444,0,0,0,0,0,0,0,0,0,0,0
633,129,4170,16252,560,0,0,0,0,0,0,0,0,0,0,0
634,129,4214,15840,566,0,0,0,0,0,0,0,0,0,0,0
635,129,4404,15710,278,0,0,0,0,0,0,0,0,0,0,0
636,129,4292,15858,552,0,0,0,0,0,0,0,0,0,0,0
637,129,4004,15582,590,0,0,0,0,0,0,0,0,0,0,0
638,129,4232,15560,592,0,0,0,0,0,0,0,0,0,0,0
639,129,4442,15846,362,0,0,0,0,0,0,0,0,0,0,0
640,129,4378,15742,456,0,0,0,0,0,0,0,0,0,0,0
641,129,4160,15768,426,0,0,0,0,0,0,0,0,0,0,0
642,129,4208,15824,572,0,0,0,0,0,0,0,0,0,0,0
643,129,4166,15782,354,0,0,0,0,0,0,0,0,0,0,0
644,129,4172,16004,620,0,0,0,0,0,0,0,0,0,0,0
645,129,4074,15852,542,0,0,0,0,0,0,0,0,0,0,0
646,129,4186,15866,542,0,0,0,0,0,0,0,0,0,0,0
647,129,4266,15914,566,0,0,0,0,0,0,0,0,0,0,0
648,129,4140,16170,620,0,0,0,0,0,0,0,0,0,0,0
649,129,4176,16042,554,0,0,0,0,0,0,0,0,0,0,0
650,129,3956,15592,448,0,0,0,0,0,0,0,0,0,0,0
651,129,4032,15870,668,0,0,0,0,0,0,0,0,0,0,0
652,129,4162,15826,498,0,0,0,0,0,0,0,0,0,0,0
653,129,4164,15602,354,0,0,0,0,0,0,0,0,0,0,0
654,129,4090,15772,622,0,0,0,0,0,0,0,0,0,0,0
655,129,4480,15846,394,0,0,0,0,0,0,0,0,0,0,0
656,129,4360,15754,360,0,0,0,0,0,0,0,0,0,0,0
657,129,3912,15794,384,0,0,0,0,0,0,0,0,0,0,0
658,129,4106,15562,426,0,0,0,0,0,0,0,0,0,0,0
659,129,4322,15892,290,0,0,0,0,0,0,0,0,0,0,0
660,129,4076,16326,282,0,0,0,0,0,0,0,0,0,0,0
661,129,4186,16000,312,0,0,0,0,0,0,0,0,0,0,0
662,129,4000,15864,546,0,0,0,0,0,0,0,0,0,0,0
663,129,4232,15624,342,0,0,0,0,0,0,0,0,0,0,0
664,129,4302,15580,288,0,0,0,0,0,0,0,0,0,0,0
665,129,4090,15732,428,0,0,0,0,0,0,0,0,0,0,0
666,129,4132,15834,664,0,0,0,0,0,0,0,0,0,0,0
667,129,4320,15952,336,0,0,0,0,0,0,0,0,0,0,0
668,129,4214,16028,498,0,0,0,0,0,0,0,0,0,0,0
669,129,4334,15810,610,0,0,0,0,0,0,0,0,0,0,0
670,129,4138,15810,610,0,0,0,0,0,0,0,0,0,0,0
671,129,4182,15912,490,0,0,0,0,0,0,0,0,0,0,0
672,129,4032,16094,368,0,0,0,0,0,0,0,0,0,0,0
673,129,4126,16078,464,0,0,0,0,0,0,0,0,0,0,0
674,129,3980,15860,632,0,0,0,0,0,0,0,0,0,0,0
675,129,4112,15620,560,0,0,0,0,0,0,0,0,0,0,0
676,129,4222,15850,572,0,0,0,0,0,0,0,0,0,0,0
677,129,4060,15830,400,0,0,0,0,0,0,0,0,0,0,0
678,129,3940,15604,646,0,0,0,0,0,0,0,0,0,0,0
679,129,4318,15640,408,0,0,0,0,0,0,0,0,0,0,0
680,129,4616,15696,296,0,0,0,0,0,0,0,0,0,0,0
681,129,4288,15736,412,0,0,0,0,0,0,0,0,0,0,0
682,129,4094,16102,510,0,0,0,0,0,0,0,0,0,0,0
683,129,4134,16124,488,0,0,0,0,0,0,0,0,0,0,0
684,129,4228,15750,642,0,0,0,0,0,0,0,0,0,0,0
685,129,4330,15756,358,0,0,0,0,0,0,0,0,0,0,0
686,129,4064,15794,590,0,0,0,0,0,0,0,0,0,0,0
687,129,4176,15476,666,0,0,0,0,0,0,0,0,0,0,0
688,129,4078,15690,718,0,0,0,0,0,0,0,0,0,0,0
689,129,4136,15916,576,0,0,0,0,0,0,0,0,0,0,0
690,129,4154,15586,720,0,0,0,0,0,0,0,0,0,0,0
691,129,4136,16054,560,0,0,0,0,0,0,0,0,0,0,0
692,129,4470,15740,310,0,0,0,0,0,0,0,0,0,0,0
693,129,4514,15770,488,0,0,0,0,0,0,0,0,0,0,0
694,129,4262,15998,558,0,0,0,0,0,0,0,0,0,0,0
695,129,4184,16010,514,0,0,0,0,0,0,0,0,0,0,0
696,129,4112,16188,606,0,0,0,0,0,0,0,0,0,0,0
697,129,4184,15780,428,0,0,0,0,0,0,0,0,0,0,0
698,129,4154,15706,724,0,0,0,0,0,0,0,0,0,0,0
699,129,4236,15778,488,0,0,0,0,0,0,0,0,0,0,0
700,129,4260,15774,350,0,0,0,0,0,0,0,0,0,0,0
701,129,3888,15980,722,0,0,0,0,0,0,0,0,0,0,0
702,129,4034,15972,722,0,0,0,0,0,0,0,0,0,0,0
703,129,4080,15978,854,0,0,0,0,0,0,0,0,0,0,0
704,129,4588,15730,544,0,0,0,0,0,0,0,0,0,0,0
705,129,4124,15868,610,0,0,0,0,0,0,0,0,0,0,0
706,129,4498,15626,598,0,0,0,0,0,0,0,0,0,0,0
707,129,4292,15762,592,0,0,0,0,0,0,0,0,0,0,0
708,129,4120,15886,134,0,0,0,0,0,0,0,0,0,0,0
709,129,3742,16130,504,0,0,0,0,0,0,0,0,0,0,0
710,129,4380,15688,526,0,0,0,0,0,0,0,0,0,0,0
711,129,4394,15702,740,0,0,0,0,0,0,0,0,0,0,0
712,129,4296,16002,598,0,0,0,0,0,0,0,0,0,0,0
713,129,4382,15846,394,0,0,0,0,0,0,0,0,0,0,0
714,129,4094,15736,350,0,0,0,0,0,0,0,0,0,0,0
715,129,4014,16120,886,0,0,0,0,0,0,0,0,0,0,0
716,129,4270,15684,824,0,0,0,0,0,0,0,0,0,0,0
717,129,4474,15768,548,0,0,0,0,0,0,0,0,0,0,0
718,129,4162,15836,698,0,0,0,0,0,0,0,0,0,0,0
719,129,4416,15674,440,0,0,0,0,0,0,0,0,0,0,0
720,129,4212,15572,704,0,0,0,0,0,0,0,0,0,0,0
721,129,4288,15716,540,0,0,0,0,0,0,0,0,0,0,0
722,129,4434,16036,470,0,0,0,0,0,0,0,0,0,0,0
723,129,4396,15926,406,0,0,0,0,0,0,0,0,0,0,0
724,129,4194,16238,544,0,0,0,0,0,0,0,0,0,0,0
725,129,4398,15614,630,0,0,0,0,0,0,0,0,0,0,0
726,129,4610,15356,716,0,0,0,0,0,0,0,0,0,0,0
727,129,4174,15730,388,0,0,0,0,0,0,0,0,0,0,0
728,129,4398,15734,964,0,0,0,0,0,0,0,0,0,0,0
729,129,4328,15708,-246,0,0,0,0,0,0,0,0,0,0,0
730,129,4138,15746,592,0,0,0,0,0,0,0,0,0,0,0
731,129,4310,16010,-24,0,0,0,0,0,0,0,0,0,0,0
732,129,4318,16096,730,0,0,0,0,0,0,0,0,0,0,0
733,129,4192,16120,642,0,0,0,0,0,0,0,0,0,0,0
734,129,4206,16152,734,0,0,0,0,0,0,0,0,0,0,0
735,129,4208,15750,768,0,0,0,0,0,0,0,0,0,0,0
736,129,4380,15660,722,0,0,0,0,0,0,0,0,0,0,0
737,129,4116,15730,770,0,0,0,0,0,0,0,0,0,0,0
738,129,4340,15588,778,0,0,0,0,0,0,0,0,0,0,0
739,129,4322,15876,852,0,0,0,0,0,0,0,0,0,0,0
740,129,4454,16200,912,0,0,0,0,0,0,0,0,0,0,0
741,129,4364,16212,818,0,0,0,0,0,0,0,0,0,0,0
742,129,4146,15820,948,0,0,0,0,0,0,0,0,0,0,0
743,129,4474,15486,2138,0,0,0,0,0,0,0,0,0,0,0
744,129,4096,15590,1650,0,0,0,0,0,0,0,0,0,0,0
745,129,4116,15916,1338,0,0,0,0,0,0,0,0,0,0,0
746,129,3980,15914,1778,0,0,0,0,0,0,0,0,0,0,0
747,129,4396,15824,1518,0,0,0,0,0,0,0,0,0,0,0
748,129,4230,15248,3256,0,0,0,0,0,0,0,0,0,0,0
749,129,3844,15436,4058,0,0,0,0,0,0,0,0,0,0,0
750,129,3922,15742,3956,0,0,0,0,0,0,0,0,0,0,0
751,129,3346,15498,4440,0,0,0,0,0,0,0,0,0,0,0
752,129,4110,15148,4440,0,0,0,0,0,0,0,0,0,0,0
753,129,3828,15626,2786,0,0,0,0,0,0,0,0,0,0,0
754,129,4548,15282,4064,0,0,0,0,0,0,0,0,0,0,0
755,129,4394,15404,4078,0,0,0,0,0,0,0,0,0,0,0
756,129,4110,15426,5146,0,0,0,0,0,0,0,0,0,0,0
757,129,3968,15708,6024,0,0,0,0,0,0,0,0,0,0,0
758,129,4112,15620,5568,0,0,0,0,0,0,0,0,0,0,0
759,129,4116,14892,5222,0,0,0,0,0,0,0,0,0,0,0
760,129,3828,15002,7020,0,0,0,0,0,0,0,0,0,0,0
761,129,3100,14988,7094,0,0,0,0,0,0,0,0,0,0,0
762,129,4868,14118,7190,0,0,0,0,0,0,0,0,0,0,0
763,129,3832,12784,8688,0,0,0,0,0,0,0,0,0,0,0
764,129,3396,11830,10456,0,0,0,0,0,0,0,0,0,0,0
765,129,4030,10676,11284,0,0,0,0,0,0,0,0,0,0,0
766,129,4232,12798,9240,0,0,0,0,0,0,0,0,0,0,0
767,129,3798,12586,9926,0,0,0,0,0,0,0,0,0,0,0
768,129,4476,11796,10554,0,0,0,0,0,0,0,0,0,0,0
769,129,2650,12564,12272,0,0,0,0,0,0,0,0,0,0,0
770,129,2976,10948,12532,0,0,0,0,0,0,0,0,0,0,0
771,129,3646,9752,12922,0,0,0,0,0,0,0,0,0,0,0
772,129,3168,9762,11000,0,0,0,0,0,0,0,0,0,0,0
773,129,2800,9356,10030,0,0,0,0,0,0,0,0,0,0,0
774,129,4162,6958,11002,0,0,0,0,0,0,0,0,0,0,0
775,129,2538,6752,14986,0,0,0,0,0,0,0,0,0,0,0
776,129,3590,6762,15518,0,0,0,0,0,0,0,0,0,0,0
777,129,3232,5720,18256,0,0,0,0,0,0,0,0,0,0,0
778,129,2622,5946,17020,0,0,0,0,0,0,0,0,0,0,0
779,129,4194,6222,11906,0,0,0,0,0,0,0,0,0,0,0
780,129,3070,4434,16272,0,0,0,0,0,0,0,0,0,0,0
781,129,3740,5276,15614,0,0,0,0,0,0,0,0,0,0,0
782,129,4018,3248,17674,0,0,0,0,0,0,0,0,0,0,0
783,129,1828,3050,16844,0,0,0,0,0,0,0,0,0,0,0
784,129,4476,1450,16532,0,0,0,0,0,0,0,0,0,0,0
785,129,3892,1146,15112,0,0,0,0,0,0,0,0,0,0,0
786,129,2274,1220,17062,0,0,0,0,0,0,0,0,0,0,0
787,129,3174,-1720,9566,0,0,0,0,0,0,0,0,0,0,0
788,129,3000,-1436,13722,0,0,0,0,0,0,0,0,0,0,0
789,129,3226,-2474,14898,0,0,0,0,0,0,0,0,0,0,0
790,129,3124,-2830,14610,0,0,0,0,0,0,0,0,0,0,0
791,129,3440,-3252,14496,0,0,0,0,0,0,0,0,0,0,0
792,129,3140,-3274,15026,0,0,0,0,0,0,0,0,0,0,0
793,129,3134,-3392,14736,0,0,0,0,0,0,0,0,0,0,0
794,129,3294,-3422,14860,0,0,0,0,0,0,0,0,0,0,0
795,129,3200,-3594,14784,0,0,0,0,0,0,0,0,0,0,0
796,129,2798,-3170,15924,0,0,0,0,0,0,0,0,0,0,0
797,129,3266,-3022,15600,0,0,0,0,0,0,0,0,0,0,0
798,129,3130,-2922,15784,0,0,0,0,0,0,0,0,0,0,0
799,129,3544,-2704,15462,0,0,0,0,0,0,0,0,0,0,0
800,129,3542,-2486,15742,0,0,0,0,0,0,0,0,0,0,0
801,129,3364,-2308,15874,0,0,0,0,0,0,0,0,0,0,0
802,129,3272,-2310,16302,0,0,0,0,0,0,0,0,0,0,0
803,129,3420,-2332,15918,0,0,0,0,0,0,0,0,0,0,0
804,129,3512,-2644,15238,0,0,0,0,0,0,0,0,0,0,0
805,129,3470,-2104,15348,0,0,0,0,0,0,0,0,0,0,0
806,129,3584,-1680,15194,0,0,0,0,0,0,0,0,0,0,0
807,129,3756,-1880,15434,0,0,0,0,0,0,0,0,0,0,0
808,129,3646,-1776,15682,0,0,0,0,0,0,0,0,0,0,0
809,129,3746,-1942,15480,0,0,0,0,0,0,0,0,0,0,0
810,129,3674,-1462,15640,0,0,0,0,0,0,0,0,0,0,0
811,129,3816,-1102,16446,0,0,0,0,0,0,0,0,0,0,0
812,129,4108,-942,15716,0,0,0,0,0,0,0,0,0,0,0
813,129,4294,-1266,15150,0,0,0,0,0,0,0,0,0,0,0
814,129,4132,-1076,15910,0,0,0,0,0,0,0,0,0,0,0
815,129,3996,-824,16218,0,0,0,0,0,0,0,0,0,0,0
816,129,4096,-788,16280,0,0,0,0,0,0,0,0,0,0,0
817,129,4466,-944,15192,0,0,0,0,0,0,0,0,0,0,0
818,129,4418,-924,15534,0,0,0,0,0,0,0,0,0,0,0
819,129,4310,-610,16474,0,0,0,0,0,0,0,0,0,0,0
820,129,3972,-1070,15524,0,0,0,0,0,0,0,0,0,0,0
821,129,4338,-1066,15446,0,0,0,0,0,0,0,0,0,0,0
822,129,4586,-1088,15390,0,0,0,0,0,0,0,0,0,0,0
823,129,4090,-1140,15186,0,0,0,0,0,0,0,0,0,0,0
824,129,4264,-902,16092,0,0,0,0,0,0,0,0,0,0,0
825,129,4496,-856,15314,0,0,0,0,0,0,0,0,0,0,0
826,129,4152,-784,16056,0,0,0,0,0,0,0,0,0,0,0
827,129,4114,-560,16256,0,0,0,0,0,0,0,0,0,0,0
828,129,4798,-636,15826,0,0,0,0,0,0,0,0,0,0,0
829,129,4598,-748,15396,0,0,0,0,0,0,0,0,0,0,0
830,129,4274,-1014,15102,0,0,0,0,0,0,0,0,0,0,0
831,129,4502,-800,15094,0,0,0,0,0,0,0,0,0,0,0
832,129,4690,-792,15498,0,0,0,0,0,0,0,0,0,0,0
833,129,4344,-708,16010,0,0,0,0,0,0,0,0,0,0,0
834,129,4608,-774,14862,0,0,0,0,0,0,0,0,0,0,0
835,129,4438,-882,15776,0,0,0,0,0,0,0,0,0,0,0
836,129,4706,-784,15628,0,0,0,0,0,0,0,0,0,0,0
837,129,4718,-734,15246,0,0,0,0,0,0,0,0,0,0,0
838,129,4754,-580,15970,0,0,0,0,0,0,0,0,0,0,0
839,129,4402,-624,15524,0,0,0,0,0,0,0,0,0,0,0
840,129,4550,-658,16084,0,0,0,0,0,0,0,0,0,0,0
841,129,4856,-938,15086,0,0,0,0,0,0,0,0,0,0,0
842,129,4456,-672,16020,0,0,0,0,0,0,0,0,0,0,0
843,129,4920,-624,15724,0,0,0,0,0,0,0,0,0,0,0
844,129,4786,-720,15590,0,0,0,0,0,0,0,0,0,0,0
845,129,4506,-832,15462,0,0,0,0,0,0,0,0,0,0,0
846,129,4720,-802,15182,0,0,0,0,0,0,0,0,0,0,0
847,129,4902,-608,15602,0,0,0,0,0,0,0,0,0,0,0
848,129,4774,-488,15716,0,0,0,0,0,0,0,0,0,0,0
849,129,4758,-734,15594,0,0,0,0,0,0,0,0,0,0,0
850,129,4736,-982,15044,0,0,0,0,0,0,0,0,0,0,0
851,129,4948,-652,15400,0,0,0,0,0,0,0,0,0,0,0
852,129,4524,-608,15862,0,0,0,0,0,0,0,0,0,0,0
853,129,4468,-722,16282,0,0,0,0,0,0,0,0,0,0,0
854,129,4654,-686,16184,0,0,0,0,0,0,0,0,0,0,0
855,129,4840,-728,15688,0,0,0,0,0,0,0,0,0,0,0
856,129,4596,-614,15514,0,0,0,0,0,0,0,0,0,0,0
857,129,4874,-702,15082,0,0,0,0,0,0,0,0,0,0,0
858,129,4770,-736,15174,0,0,0,0,0,0,0,0,0,0,0
859,129,4964,-606,15686,0,0,0,0,0,0,0,0,0,0,0
860,129,4808,-664,15884,0,0,0,0,0,0,0,0,0,0,0
861,129,4934,-856,14742,0,0,0,0,0,0,0,0,0,0,0
862,129,5028,-886,15370,0,0,0,0,0,0,0,0,0,0,0
863,129,4816,-684,15836,0,0,0,0,0,0,0,0,0,0,0
864,129,5088,-658,15456,0,0,0,0,0,0,0,0,0,0,0
865,129,4792,-500,16112,0,0,0,0,0,0,0,0,0,0,0
866,129,4734,-538,16322,0,0,0,0,0,0,0,0,0,0,0
867,129,4960,-866,15228,0,0,0,0,0,0,0,0,0,0,0
868,129,4980,-666,15116,0,0,0,0,0,0,0,0,0,0,0
869,129,5086,-270,16102,0,0,0,0,0,0,0,0,0,0,0
870,129,4974,-354,15622,0,0,0,0,0,0,0,0,0,0,0
871,129,4738,-730,14516,0,0,0,0,0,0,0,0,0,0,0
872,129,4902,-638,15414,0,0,0,0,0,0,0,0,0,0,0
873,129,4742,-662,15434,0,0,0,0,0,0,0,0,0,0,0
874,129,5242,-494,15916,0,0,0,0,0,0,0,0,0,0,0
875,129,4906,-440,15392,0,0,0,0,0,0,0,0,0,0,0
876,129,4698,-632,15964,0,0,0,0,0,0,0,0,0,0,0
877,129,4934,-776,15376,0,0,0,0,0,0,0,0,0,0,0
878,129,5128,-618,14998,0,0,0,0,0,0,0,0,0,0,0
879,129,5194,-278,15782,0,0,0,0,0,0,0,0,0,0,0
880,129,5048,-336,16282,0,0,0,0,0,0,0,0,0,0,0
881,129,4760,-862,15048,0,0,0,0,0,0,0,0,0,0,0
882,129,5086,-634,15428,0,0,0,0,0,0,0,0,0,0,0
883,129,4780,-494,15900,0,0,0,0,0,0,0,0,0,0,0
884,129,5196,-446,15600,0,0,0,0,0,0,0,0,0,0,0
885,129,4980,-332,15420,0,0,0,0,0,0,0,0,0,0,0
886,129,4994,-672,15044,0,0,0,0,0,0,0,0,0,0,0
887,129,5126,-644,15472,0,0,0,0,0,0,0,0,0,0,0
888,129,4906,-564,15392,0,0,0,0,0,0,0,0,0,0,0
889,129,5226,-446,15612,0,0,0,0,0,0,0,0,0,0,0
890,129,4842,-314,15968,0,0,0,0,0,0,0,0,0,0,0
891,129,4862,-482,15480,0,0,0,0,0,0,0,0,0,0,0
892,129,5342,-272,15276,0,0,0,0,0,0,0,0,0,0,0
893,129,5274,-398,15546,0,0,0,0,0,0,0,0,0,0,0
894,129,5006,-364,15786,0,0,0,0,0,0,0,0,0,0,0
895,129,5026,-374,15496,0,0,0,0,0,0,0,0,0,0,0
896,129,4878,-502,15306,0,0,0,0,0,0,0,0,0,0,0
897,129,4980,-422,15960,0,0,0,0,0,0,0,0,0,0,0
898,129,4946,-492,15004,0,0,0,0,0,0,0,0,0,0,0
899,129,4878,-474,15646,0,0,0,0,0,0,0,0,0,0,0
900,129,5052,-588,15382,0,0,0,0,0,0,0,0,0,0,0
901,129,5090,-382,15074,0,0,0,0,0,0,0,0,0,0,0
902,129,4898,-306,15628,0,0,0,0,0,0,0,0,0,0,0
903,129,5232,-242,15498,0,0,0,0,0,0,0,0,0,0,0
904,129,5122,-360,15294,0,0,0,0,0,0,0,0,0,0,0
905,129,5254,-310,15366,0,0,0,0,0,0,0,0,0,0,0
906,129,5282,-346,14984,0,0,0,0,0,0,0,0,0,0,0
907,129,4910,-296,15800,0,0,0,0,0,0,0,0,0,0,0
908,129,4656,-278,15824,0,0,0,0,0,0,0,0,0,0,0
909,129,5118,-262,15652,0,0,0,0,0,0,0,0,0,0,0
910,129,5110,-126,15978,0,0,0,0,0,0,0,0,0,0,0
911,129,5098,-458,15198,0,0,0,0,0,0,0,0,0,0,0
912,129,5132,-286,15282,0,0,0,0,0,0,0,0,0,0,0
913,129,5134,-272,15544,0,0,0,0,0,0,0,0,0,0,0
914,129,5120,-496,15360,0,0,0,0,0,0,0,0,0,0,0
915,129,5134,-496,15278,0,0,0,0,0,0,0,0,0,0,0
916,129,5166,-564,15336,0,0,0,0,0,0,0,0,0,0,0
917,129,5100,-490,15362,0,0,0,0,0,0,0,0,0,0,0
918,129,5056,-102,15688,0,0,0,0,0,0,0,0,0,0,0
919,129,5328,-44,15656,0,0,0,0,0,0,0,0,0,0,0
920,129,5282,-330,15260,0,0,0,0,0,0,0,0,0,0,0
921,129,5182,-452,15004,0,0,0,0,0,0,0,0,0,0,0
922,129,5022,-216,15558,0,0,0,0,0,0,0,0,0,0,0
923,129,5174,-560,14626,0,0,0,0,0,0,0,0,0,0,0
924,129,5268,-348,15666,0,0,0,0,0,0,0,0,0,0,0
925,129,4730,-120,16642,0,0,0,0,0,0,0,0,0,0,0
926,129,5258,-364,15246,0,0,0,0,0,0,0,0,0,0,0
927,129,5032,-656,15014,0,0,0,0,0,0,0,0,0,0,0
928,129,4950,-376,15756,0,0,0,0,0,0,0,0,0,0,0
929,129,5036,-394,15856,0,0,0,0,0,0,0,0,0,0,0
930,129,5312,-288,14910,0,0,0,0,0,0,0,0,0,0,0
931,129,5000,-294,15538,0,0,0,0,0,0,0,0,0,0,0
932,129,4898,-466,15410,0,0,0,0,0,0,0,0,0,0,0
933,129,5096,-426,14818,0,0,0,0,0,0,0,0,0,0,0
934,129,5198,-148,15400,0,0,0,0,0,0,0,0,0,0,0
935,129,5312,40,16052,0,0,0,0,0,0,0,0,0,0,0
936,129,5254,-228,15262,0,0,0,0,0,0,0,0,0,0,0
937,129,4978,-396,15708,0,0,0,0,0,0,0,0,0,0,0
938,129,5230,-252,15626,0,0,0,0,0,0,0,0,0,0,0
939,129,5326,-244,15080,0,0,0,0,0,0,0,0,0,0,0
940,129,5026,-228,15714,0,0,0,0,0,0,0,0,0,0,0
941,129,5062,-292,15368,0,0,0,0,0,0,0,0,0,0,0
942,129,5160,-510,15026,0,0,0,0,0,0,0,0,0,0,0
943,129,4862,-372,15682,0,0,0,0,0,0,0,0,0,0,0
944,129,5120,-92,15646,0,0,0,0,0,0,0,0,0,0,0
945,129,5016,18,15598,0,0,0,0,0,0,0,0,0,0,0
946,129,4924,-94,15598,0,0,0,0,0,0,0,0,0,0,0
947,129,5222,-218,15164,0,0,0,0,0,0,0,0,0,0,0
948,129,5386,-6,15424,0,0,0,0,0,0,0,0,0,0,0
949,129,5588,-60,15684,0,0,0,0,0,0,0,0,0,0,0
950,129,5162,-266,14836,0,0,0,0,0,0,0,0,0,0,0
951,129,4834,-288,15434,0,0,0,0,0,0,0,0,0,0,0
952,129,5332,-204,15548,0,0,0,0,0,0,0,0,0,0,0
953,129,5318,-254,15544,0,0,0,0,0,0,0,0,0,0,0
954,129,4964,-314,15410,0,0,0,0,0,0,0,0,0,0,0
955,129,5106,-226,15582,0,0,0,0,0,0,0,0,0,0,0
956,129,5090,-172,15266,0,0,0,0,0,0,0,0,0,0,0
957,129,5214,-316,15580,0,0,0,0,0,0,0,0,0,0,0
958,129,5070,48,15990,0,0,0,0,0,0,0,0,0,0,0
959,129,5046,-96,15658,0,0,0,0,0,0,0,0,0,0,0
960,129,5212,-190,15196,0,0,0,0,0,0,0,0,0,0,0
961,129,5024,-208,15106,0,0,0,0,0,0,0,0,0,0,0
962,129,5058,-44,15630,0,0,0,0,0,0,0,0,0,0,0
963,129,5320,-88,15598,0,0,0,0,0,0,0,0,0,0,0
964,129,5282,-264,15018,0,0,0,0,0,0,0,0,0,0,0
965,129,4936,-262,15750,0,0,0,0,0,0,0,0,0,0,0
966,129,5070,-116,15714,0,0,0,0,0,0,0,0,0,0,0
967,129,5130,-50,15310,0,0,0,0,0,0,0,0,0,0,0
968,129,5144,-82,15502,0,0,0,0,0,0,0,0,0,0,0
969,129,5244,-410,15082,0,0,0,0,0,0,0,0,0,0,0
970,129,4936,-206,15704,0,0,0,0,0,0,0,0,0,0,0
971,129,5304,-26,15490,0,0,0,0,0,0,0,0,0,0,0
972,129,5142,-22,15228,0,0,0,0,0,0,0,0,0,0,0
973,129,5042,-140,15584,0,0,0,0,0,0,0,0,0,0,0
974,129,5240,-174,15250,0,0,0,0,0,0,0,0,0,0,0
975,129,5198,-22,15828,0,0,0,0,0,0,0,0,0,0,0
976,129,5052,-82,15624,0,0,0,0,0,0,0,0,0,0,0
977,129,4982,-72,15838,0,0,0,0,0,0,0,0,0,0,0
978,129,5160,-12,15718,0,0,0,0,0,0,0,0,0,0,0
979,129,5198,30,15676,0,0,0,0,0,0,0,0,0,0,0
980,129,5318,-222,14690,0,0,0,0,0,0,0,0,0,0,0
981,129,4940,-336,15634,0,0,0,0,0,0,0,0,0,0,0
982,129,5176,-110,15314,0,0,0,0,0,0,0,0,0,0,0
983,129,5054,-148,15320,0,0,0,0,0,0,0,0,0,0,0
984,129,5002,-106,15392,0,0,0,0,0,0,0,0,0,0,0
985,129,5016,-102,15716,0,0,0,0,0,0,0,0,0,0,0
986,129,5290,48,15334,0,0,0,0,0,0,0,0,0,0,0
987,129,5366,-6,15218,0,0,0,0,0,0,0,0,0,0,0
988,129,4938,26,15600,0,0,0,0,0,0,0,0,0,0,0
989,129,4964,-62,15604,0,0,0,0,0,0,0,0,0,0,0
990,129,5086,6,15540,0,0,0,0,0,0,0,0,0,0,0
991,129,5192,-128,15548,0,0,0,0,0,0,0,0,0,0,0
992,129,4940,-84,15736,0,0,0,0,0,0,0,0,0,0,0
993,129,5078,176,15558,0,0,0,0,0,0,0,0,0,0,0
994,129,5152,42,15340,0,0,0,0,0,0,0,0,0,0,0
995,129,5066,-28,15052,0,0,0,0,0,0,0,0,0,0,0
996,129,5008,-174,15314,0,0,0,0,0,0,0,0,0,0,0
997,129,4842,28,15306,0,0,0,0,0,0,0,0,0,0,0
998,129,4894,-74,15686,0,0,0,0,0,0,0,0,0,0,0
999,129,4840,-170,15700,0,0,0,0,0,0,0,0,0,0,0
1000,129,5180,0,15424,0,0,0,0,0,0,0,0,0,0,0
1001,129,4904,-60,15580,0,0,0,0,0,0,0,0,0,0,0
1002,129,4724,-20,15586,0,0,0,0,0,0,0,0,0,0,0
1003,129,5050,-134,15562,0,0,0,0,0,0,0,0,0,0,0
1004,129,4974,-94,15512,0,0,0,0,0,0,0,0,0,0,0
1005,129,5096,-52,15720,0,0,0,0,0,0,0,0,0,0,0
1006,129,5166,198,15700,0,0,0,0,0,0,0,0,0,0,0
1007,129,4962,-92,15174,0,0,0,0,0,0,0,0,0,0,0
1008,129,4830,-334,15234,0,0,0,0,0,0,0,0,0,0,0
1009,129,4898,-54,15718,0,0,0,0,0,0,0,0,0,0,0
1010,129,4898,64,15624,0,0,0,0,0,0,0,0,0,0,0
1011,129,5014,-98,15392,0,0,0,0,0,0,0,0,0,0,0
1012,129,4948,-224,15322,0,0,0,0,0,0,0,0,0,0,0
1013,129,5166,-134,15188,0,0,0,0,0,0,0,0,0,0,0
1014,129,5036,12,15614,0,0,0,0,0,0,0,0,0,0,0
1015,129,4922,38,15758,0,0,0,0,0,0,0,0,0,0,0
1016,129,4854,12,16226,0,0,0,0,0,0,0,0,0,0,0
1017,129,5264,-34,15360,0,0,0,0,0,0,0,0,0,0,0
1018,129,4850,-42,15724,0,0,0,0,0,0,0,0,0,0,0
1019,129,5112,-12,15456,0,0,0,0,0,0,0,0,0,0,0
1020,129,5124,70,15306,0,0,0,0,0,0,0,0,0,0,0
1021,129,4948,52,15722,0,0,0,0,0,0,0,0,0,0,0
1022,129,4922,-26,15596,0,0,0,0,0,0,0,0,0,0,0
1023,129,4872,-220,15440,0,0,0,0,0,0,0,0,0,0,0
1024,129,4832,-306,15186,0,0,0,0,0,0,0,0,0,0,0
1025,129,5082,86,15336,0,0,0,0,0,0,0,0,0,0,0
1026,129,5000,-10,15698,0,0,0,0,0,0,0,0,0,0,0
1027,129,4920,-114,15538,0,0,0,0,0,0,0,0,0,0,0
1028,129,4998,-150,15686,0,0,0,0,0,0,0,0,0,0,0
1029,129,5048,-138,15428,0,0,0,0,0,0,0,0,0,0,0
1030,129,4844,56,15760,0,0,0,0,0,0,0,0,0,0,0
1031,129,4890,-56,15750,0,0,0,0,0,0,0,0,0,0,0
1032,129,4900,36,15340,0,0,0,0,0,0,0,0,0,0,0
1033,129,4796,-56,15516,0,0,0,0,0,0,0,0,0,0,0
1034,129,4726,-206,15086,0,0,0,0,0,0,0,0,0,0,0
1035,129,4736,-84,14874,0,0,0,0,0,0,0,0,0,0,0
1036,129,4772,26,15584,0,0,0,0,0,0,0,0,0,0,0
1037,129,4554,-84,16016,0,0,0,0,0,0,0,0,0,0,0
1038,129,5058,-148,15436,0,0,0,0,0,0,0,0,0,0,0
1039,129,4872,-180,15290,0,0,0,0,0,0,0,0,0,0,0
1040,129,4734,-54,15532,0,0,0,0,0,0,0,0,0,0,0
1041,129,4958,-76,15594,0,0,0,0,0,0,0,0,0,0,0
1042,129,4910,-100,15600,0,0,0,0,0,0,0,0,0,0,0
1043,129,4938,-124,15634,0,0,0,0,0,0,0,0,0,0,0
1044,129,4750,56,16282,0,0,0,0,0,0,0,0,0,0,0
1045,129,5070,-96,15466,0,0,0,0,0,0,0,0,0,0,0
1046,129,4924,-190,15196,0,0,0,0,0,0,0,0,0,0,0
1047,129,5262,232,15394,0,0,0,0,0,0,0,0,0,0,0
1048,129,4954,216,15480,0,0,0,0,0,0,0,0,0,0,0
1049,129,5008,326,15826,0,0,0,0,0,0,0,0,0,0,0
1050,129,4890,-52,15178,0,0,0,0,0,0,0,0,0,0,0
1051,129,4900,-20,15670,0,0,0,0,0,0,0,0,0,0,0
1052,129,4718,-44,15618,0,0,0,0,0,0,0,0,0,0,0
1053,129,4188,-218,15958,0,0,0,0,0,0,0,0,0,0,0
1054,129,4676,40,15950,0,0,0,0,0,0,0,0,0,0,0
1055,129,4984,-30,15776,0,0,0,0,0,0,0,0,0,0,0
1056,129,5132,-62,15510,0,0,0,0,0,0,0,0,0,0,0
1057,129,4988,-200,15138,0,0,0,0,0,0,0,0,0,0,0
1058,129,4808,-402,15138,0,0,0,0,0,0,0,0,0,0,0
1059,129,4426,-194,15508,0,0,0,0,0,0,0,0,0,0,0
1060,129,4838,58,15682,0,0,0,0,0,0,0,0,0,0,0
1061,129,4988,24,15920,0,0,0,0,0,0,0,0,0,0,0
1062,129,5298,70,15218,0,0,0,0,0,0,0,0,0,0,0
1063,129,5212,184,15026,0,0,0,0,0,0,0,0,0,0,0
1064,129,4978,202,15580,0,0,0,0,0,0,0,0,0,0,0
1065,129,4986,328,15428,0,0,0,0,0,0,0,0,0,0,0
1066,129,4962,184,15628,0,0,0,0,0,0,0,0,0,0,0
1067,129,4732,138,15872,0,0,0,0,0,0,0,0,0,0,0
1068,129,4750,-186,15562,0,0,0,0,0,0,0,0,0,0,0
1069,129,5048,-210,15206,0,0,0,0,0,0,0,0,0,0,0
1070,129,4960,-170,15400,0,0,0,0,0,0,0,0,0,0,0
1071,129,4866,166,15890,0,0,0,0,0,0,0,0,0,0,0
1072,129,4586,-28,16018,0,0,0,0,0,0,0,0,0,0,0
1073,129,5652,-412,15406,0,0,0,0,0,0,0,0,0,0,0
1074,129,5366,186,15612,0,0,0,0,0,0,0,0,0,0,0
1075,129,5060,514,13998,0,0,0,0,0,0,0,0,0,0,0
1076,129,4960,92,14904,0,0,0,0,0,0,0,0,0,0,0
1077,129,5398,376,15034,0,0,0,0,0,0,0,0,0,0,0
1078,129,4890,334,15044,0,0,0,0,0,0,0,0,0,0,0
1079,129,4684,756,15430,0,0,0,0,0,0,0,0,0,0,0
1080,129,4786,938,15340,0,0,0,0,0,0,0,0,0,0,0
1081,129,4884,906,15294,0,0,0,0,0,0,0,0,0,0,0
1082,129,5178,1158,14366,0,0,0,0,0,0,0,0,0,0,0
1083,129,4934,1506,15970,0,0,0,0,0,0,0,0,0,0,0
1084,129,5264,1970,16182,0,0,0,0,0,0,0,0,0,0,0
1085,129,4654,2536,16070,0,0,0,0,0,0,0,0,0,0,0
1086,129,4548,2722,14426,0,0,0,0,0,0,0,0,0,0,0
1087,129,5274,3318,15190,0,0,0,0,0,0,0,0,0,0,0
1088,129,5620,3450,14732,0,0,0,0,0,0,0,0,0,0,0
1089,129,5246,3982,12508,0,0,0,0,0,0,0,0,0,0,0
1090,129,5436,4310,15512,0,0,0,0,0,0,0,0,0,0,0
1091,129,6092,4198,15016,0,0,0,0,0,0,0,0,0,0,0
1092,129,6400,4098,12554,0,0,0,0,0,0,0,0,0,0,0
1093,129,5082,5588,14184,0,0,0,0,0,0,0,0,0,0,0
1094,129,5602,6198,14838,0,0,0,0,0,0,0,0,0,0,0
1095,129,5548,6756,14912,0,0,0,0,0,0,0,0,0,0,0
1096,129,4342,7096,15378,0,0,0,0,0,0,0,0,0,0,0
1097,129,8000,5122,8450,0,0,0,0,0,0,0,0,0,0,0
1098,129,5082,8374,12478,0,0,0,0,0,0,0,0,0,0,0
1099,129,3482,8602,14218,0,0,0,0,0,0,0,0,0,0,0
1100,129,6608,6892,8980,0,0,0,0,0,0,0,0,0,0,0
1101,129,6312,7610,10944,0,0,0,0,0,0,0,0,0,0,0
1102,129,8782,9488,10056,0,0,0,0,0,0,0,0,0,0,0
1103,129,6126,8268,4212,0,0,0,0,0,0,0,0,0,0,0
1104,129,6332,12012,14864,0,0,0,0,0,0,0,0,0,0,0
1105,129,5928,11392,11076,0,0,0,0,0,0,0,0,0,0,0
1106,129,2488,13070,7090,0,0,0,0,0,0,0,0,0,0,0
1107,129,5370,14724,9714,0,0,0,0,0,0,0,0,0,0,0
1108,129,4690,11898,3928,0,0,0,0,0,0,0,0,0,0,0
1109,129,7226,13334,7174,0,0,0,0,0,0,0,0,0,0,0
1110,129,6606,14246,6570,0,0,0,0,0,0,0,0,0,0,0
1111,129,9162,15388,6646,0,0,0,0,0,0,0,0,0,0,0
1112,129,5128,17464,4590,0,0,0,0,0,0,0,0,0,0,0
1113,129,4550,15434,2230,0,0,0,0,0,0,0,0,0,0,0
1114,129,7554,16186,4194,0,0,0,0,0,0,0,0,0,0,0
1115,129,9804,15198,-944,0,0,0,0,0,0,0,0,0,0,0
1116,129,6954,15312,2242,0,0,0,0,0,0,0,0,0,0,0
1117,129,4818,16176,2082,0,0,0,0,0,0,0,0,0,0,0
1118,129,5562,16010,1060,0,0,0,0,0,0,0,0,0,0,0
1119,129,5774,15522,630,0,0,0,0,0,0,0,0,0,0,0
1120,129,6238,15330,732,0,0,0,0,0,0,0,0,0,0,0
1121,129,5616,15272,880,0,0,0,0,0,0,0,0,0,0,0
1122,129,6576,14560,684,0,0,0,0,0,0,0,0,0,0,0
1123,129,5760,15170,1558,0,0,0,0,0,0,0,0,0,0,0
1124,129,5736,14934,1508,0,0,0,0,0,0,0,0,0,0,0
1125,129,6158,14978,870,0,0,0,0,0,0,0,0,0,0,0
1126,129,6536,15390,1112,0,0,0,0,0,0,0,0,0,0,0
1127,129,6184,15658,2450,0,0,0,0,0,0,0,0,0,0,0
1128,129,3626,16910,3478,0,0,0,0,0,0,0,0,0,0,0
1129,129,6446,16158,1716,0,0,0,0,0,0,0,0,0,0,0
1130,129,5860,15216,3034,0,0,0,0,0,0,0,0,0,0,0
1131,129,6816,14542,-2340,0,0,0,0,0,0,0,0,0,0,0
1132,129,6106,15044,2700,0,0,0,0,0,0,0,0,0,0,0
1133,129,6494,14618,1168,0,0,0,0,0,0,0,0,0,0,0
1134,129,5920,14928,1794,0,0,0,0,0,0,0,0,0,0,0
1135,129,6032,15184,1934,0,0,0,0,0,0,0,0,0,0,0
1136,129,6250,15098,1804,0,0,0,0,0,0,0,0,0,0,0
1137,129,5692,15306,2444,0,0,0,0,0,0,0,0,0,0,0
1138,129,6048,15096,2596,0,0,0,0,0,0,0,0,0,0,0
1139,129,6040,15254,2246,0,0,0,0,0,0,0,0,0,0,0
1140,129,5276,15534,3216,0,0,0,0,0,0,0,0,0,0,0
1141,129,5498,14676,2820,0,0,0,0,0,0,0,0,0,0,0
1142,129,5908,15042,2768,0,0,0,0,0,0,0,0,0,0,0
1143,129,5552,15304,2904,0,0,0,0,0,0,0,0,0,0,0
1144,129,5986,14806,2720,0,0,0,0,0,0,0,0,0,0,0
1145,129,6084,15028,2760,0,0,0,0,0,0,0,0,0,0,0
1146,129,5818,14730,2420,0,0,0,0,0,0,0,0,0,0,0
1147,129,6174,14878,2210,0,0,0,0,0,0,0,0,0,0,0
1148,129,5762,15446,2666,0,0,0,0,0,0,0,0,0,0,0
1149,129,5598,15370,2872,0,0,0,0,0,0,0,0,0,0,0
1150,129,5710,15450,3034,0,0,0,0,0,0,0,0,0,0,0
1151,129,5592,15132,2662,0,0,0,0,0,0,0,0,0,0,0
1152,129,6264,14616,2690,0,0,0,0,0,0,0,0,0,0,0
1153,129,5816,14802,2928,0,0,0,0,0,0,0,0,0,0,0
1154,129,6028,14922,2846,0,0,0,0,0,0,0,0,0,0,0
1155,129,5594,14974,2426,0,0,0,0,0,0,0,0,0,0,0
1156,129,5704,15360,2814,0,0,0,0,0,0,0,0,0,0,0
1157,129,6078,15064,2746,0,0,0,0,0,0,0,0,0,0,0
1158,129,6134,15124,2786,0,0,0,0,0,0,0,0,0,0,0
1159,129,5838,15214,2916,0,0,0,0,0,0,0,0,0,0,0
1160,129,5890,15012,2766,0,0,0,0,0,0,0,0,0,0,0
1161,129,6230,14760,2770,0,0,0,0,0,0,0,0,0,0,0
1162,129,5834,14646,2750,0,0,0,0,0,0,0,0,0,0,0
1163,129,5716,15252,2814,0,0,0,0,0,0,0,0,0,0,0
1164,129,5658,15732,2866,0,0,0,0,0,0,0,0,0,0,0
1165,129,5936,15268,2738,0,0,0,0,0,0,0,0,0,0,0
1166,129,6190,14734,2836,0,0,0,0,0,0,0,0,0,0,0
1167,129,5936,14662,2794,0,0,0,0,0,0,0,0,0,0,0
1168,129,5702,14834,2958,0,0,0,0,0,0,0,0,0,0,0
1169,129,5710,15194,2966,0,0,0,0,0,0,0,0,0,0,0
1170,129,5576,15532,3302,0,0,0,0,0,0,0,0,0,0,0
1171,129,6182,15210,2828,0,0,0,0,0,0,0,0,0,0,0
1172,129,5982,15104,2668,0,0,0,0,0,0,0,0,0,0,0
1173,129,6106,15206,2724,0,0,0,0,0,0,0,0,0,0,0
1174,129,6016,14790,2746,0,0,0,0,0,0,0,0,0,0,0
1175,129,5476,14850,2504,0,0,0,0,0,0,0,0,0,0,0
1176,129,5936,15254,2984,0,0,0,0,0,0,0,0,0,0,0
1177,129,6002,15286,2922,0,0,0,0,0,0,0,0,0,0,0
1178,129,6302,14758,2726,0,0,0,0,0,0,0,0,0,0,0
1179,129,5892,14982,3176,0,0,0,0,0,0,0,0,0,0,0
1180,129,5604,14896,2964,0,0,0,0,0,0,0,0,0,0,0
1181,129,5350,14696,3154,0,0,0,0,0,0,0,0,0,0,0
1182,129,5914,15098,2988,0,0,0,0,0,0,0,0,0,0,0
1183,129,5564,15344,2884,0,0,0,0,0,0,0,0,0,0,0
1184,129,6012,15054,2748,0,0,0,0,0,0,0,0,0,0,0
1185,129,6114,15044,2920,0,0,0,0,0,0,0,0,0,0,0
1186,129,5772,15262,3102,0,0,0,0,0,0,0,0,0,0,0
1187,129,5614,15062,2914,0,0,0,0,0,0,0,0,0,0,0
1188,129,6084,15008,2996,0,0,0,0,0,0,0,0,0,0,0
1189,129,7806,15000,4062,0,0,0,0,0,0,0,0,0,0,0
1190,129,5178,14988,3306,0,0,0,0,0,0,0,0,0,0,0
1191,129,5718,14986,2546,0,0,0,0,0,0,0,0,0,0,0
1192,129,5680,15024,2692,0,0,0,0,0,0,0,0,0,0,0
1193,129,6042,15164,2734,0,0,0,0,0,0,0,0,0,0,0
1194,129,5764,15370,2394,0,0,0,0,0,0,0,0,0,0,0
1195,129,5716,15152,2064,0,0,0,0,0,0,0,0,0,0,0
1196,129,5646,14898,2002,0,0,0,0,0,0,0,0,0,0,0
1197,129,5938,14866,2300,0,0,0,0,0,0,0,0,0,0,0
1198,129,6152,14958,2092,0,0,0,0,0,0,0,0,0,0,0
1199,129,5886,15398,2180,0,0,0,0,0,0,0,0,0,0,0
1200,129,5302,15606,1796,0,0,0,0,0,0,0,0,0,0,0
1201,129,5570,15396,1806,0,0,0,0,0,0,0,0,0,0,0
1202,129,5710,15556,1680,0,0,0,0,0,0,0,0,0,0,0
1203,129,6024,14770,1432,0,0,0,0,0,0,0,0,0,0,0
1204,129,5630,15146,3304,0,0,0,0,0,0,0,0,0,0,0
1205,129,5962,15246,1758,0,0,0,0,0,0,0,0,0,0,0
1206,129,4280,17554,9376,0,0,0,0,0,0,0,0,0,0,0
1207,129,5658,14682,-7212,0,0,0,0,0,0,0,0,0,0,0
1208,129,5246,15144,4120,0,0,0,0,0,0,0,0,0,0,0
1209,129,5628,15112,2446,0,0,0,0,0,0,0,0,0,0,0
1210,129,5824,14868,1348,0,0,0,0,0,0,0,0,0,0,0
1211,129,6238,14732,1536,0,0,0,0,0,0,0,0,0,0,0
1212,129,5844,14926,2178,0,0,0,0,0,0,0,0,0,0,0
1213,129,5890,14654,3890,0,0,0,0,0,0,0,0,0,0,0
1214,129,3928,15000,-710,0,0,0,0,0,0,0,0,0,0,0
1215,129,6008,16300,3236,0,0,0,0,0,0,0,0,0,0,0
1216,129,4836,16226,2554,0,0,0,0,0,0,0,0,0,0,0
1217,129,5508,15496,2972,0,0,0,0,0,0,0,0,0,0,0
1218,129,5284,15532,3004,0,0,0,0,0,0,0,0,0,0,0
1219,129,5384,14770,2820,0,0,0,0,0,0,0,0,0,0,0
1220,129,5640,14880,1394,0,0,0,0,0,0,0,0,0,0,0
1221,129,5192,15346,2998,0,0,0,0,0,0,0,0,0,0,0
1222,129,4800,15720,1824,0,0,0,0,0,0,0,0,0,0,0
1223,129,5534,15218,2686,0,0,0,0,0,0,0,0,0,0,0
1224,129,6084,15576,1692,0,0,0,0,0,0,0,0,0,0,0
1225,129,5798,15516,1422,0,0,0,0,0,0,0,0,0,0,0
1226,129,5270,15990,1894,0,0,0,0,0,0,0,0,0,0,0
1227,129,5640,15408,1598,0,0,0,0,0,0,0,0,0,0,0
1228,129,5696,14658,1892,0,0,0,0,0,0,0,0,0,0,0
1229,129,5146,15332,1570,0,0,0,0,0,0,0,0,0,0,0
1230,129,5672,14726,1586,0,0,0,0,0,0,0,0,0,0,0
1231,129,5948,15290,964,0,0,0,0,0,0,0,0,0,0,0
1232,129,5292,15270,496,0,0,0,0,0,0,0,0,0,0,0
1233,129,5714,14796,-394,0,0,0,0,0,0,0,0,0,0,0
1234,129,1414,17770,2256,0,0,0,0,0,0,0,0,0,0,0
1235,129,8256,15962,532,0,0,0,0,0,0,0,0,0,0,0
1236,129,2792,18148,2842,0,0,0,0,0,0,0,0,0,0,0
1237,129,8150,15284,-1068,0,0,0,0,0,0,0,0,0,0,0
1238,129,5644,15404,-1150,0,0,0,0,0,0,0,0,0,0,0
1239,129,5724,15266,-1006,0,0,0,0,0,0,0,0,0,0,0
1240,129,5496,15180,-1306,0,0,0,0,0,0,0,0,0,0,0
1241,129,5670,15528,-1830,0,0,0,0,0,0,0,0,0,0,0
1242,129,5214,15852,-1752,0,0,0,0,0,0,0,0,0,0,0
1243,129,5294,15934,-1660,0,0,0,0,0,0,0,0,0,0,0
1244,129,5346,15580,-1006,0,0,0,0,0,0,0,0,0,0,0
1245,129,5488,15388,-1016,0,0,0,0,0,0,0,0,0,0,0
1246,129,5292,15404,-212,0,0,0,0,0,0,0,0,0,0,0
1247,129,5136,15434,-210,0,0,0,0,0,0,0,0,0,0,0
1248,129,5882,15236,-454,0,0,0,0,0,0,0,0,0,0,0
1249,129,5028,15384,-1054,0,0,0,0,0,0,0,0,0,0,0
1250,129,5570,15340,-2284,0,0,0,0,0,0,0,0,0,0,0
1251,129,5216,15430,-352,0,0,0,0,0,0,0,0,0,0,0
1252,129,5596,15482,-506,0,0,0,0,0,0,0,0,0,0,0
1253,129,5812,15470,-738,0,0,0,0,0,0,0,0,0,0,0
1254,129,6018,15116,-334,0,0,0,0,0,0,0,0,0,0,0
1255,129,5032,15650,166,0,0,0,0,0,0,0,0,0,0,0
1256,129,5092,15674,130,0,0,0,0,0,0,0,0,0,0,0
1257,129,5110,15738,352,0,0,0,0,0,0,0,0,0,0,0
1258,129,5836,15388,342,0,0,0,0,0,0,0,0,0,0,0
1259,129,5022,15534,268,0,0,0,0,0,0,0,0,0,0,0
1260,129,5100,15464,560,0,0,0,0,0,0,0,0,0,0,0
1261,129,5266,15240,216,0,0,0,0,0,0,0,0,0,0,0
1262,129,5180,15440,240,0,0,0,0,0,0,0,0,0,0,0
1263,129,5572,15694,426,0,0,0,0,0,0,0,0,0,0,0
1264,129,5284,15630,266,0,0,0,0,0,0,0,0,0,0,0
1265,129,5516,15588,170,0,0,0,0,0,0,0,0,0,0,0
1266,129,4822,15418,428,0,0,0,0,0,0,0,0,0,0,0
1267,129,6434,15334,-242,0,0,0,0,0,0,0,0,0,0,0
1268,129,5660,15208,256,0,0,0,0,0,0,0,0,0,0,0
1269,129,5222,15544,408,0,0,0,0,0,0,0,0,0,0,0
1270,129,5180,15696,496,0,0,0,0,0,0,0,0,0,0,0
1271,129,5322,15678,216,0,0,0,0,0,0,0,0,0,0,0
1272,129,5112,15676,302,0,0,0,0,0,0,0,0,0,0,0
1273,129,5440,15326,384,0,0,0,0,0,0,0,0,0,0,0
1274,129,5490,15482,440,0,0,0,0,0,0,0,0,0,0,0
1275,129,4776,15718,440,0,0,0,0,0,0,0,0,0,0,0
1276,129,5356,15318,402,0,0,0,0,0,0,0,0,0,0,0
1277,129,5260,15578,522,0,0,0,0,0,0,0,0,0,0,0
1278,129,5428,15544,338,0,0,0,0,0,0,0,0,0,0,0
1279,129,5022,15626,480,0,0,0,0,0,0,0,0,0,0,0
1280,129,5390,15656,468,0,0,0,0,0,0,0,0,0,0,0
1281,129,5476,15418,304,0,0,0,0,0,0,0,0,0,0,0
1282,129,5360,15482,420,0,0,0,0,0,0,0,0,0,0,0
1283,129,5264,15474,346,0,0,0,0,0,0,0,0,0,0,0
1284,129,5794,15402,452,0,0,0,0,0,0,0,0,0,0,0
1285,129,5012,15358,254,0,0,0,0,0,0,0,0,0,0,0
1286,129,5298,15744,616,0,0,0,0,0,0,0,0,0,0,0
1287,129,5576,15618,296,0,0,0,0,0,0,0,0,0,0,0
1288,129,5230,15352,470,0,0,0,0,0,0,0,0,0,0,0
1289,129,5090,15452,586,0,0,0,0,0,0,0,0,0,0,0
1290,129,5356,15616,440,0,0,0,0,0,0,0,0,0,0,0
1291,129,5690,15264,252,0,0,0,0,0,0,0,0,0,0,0
1292,129,5010,15604,662,0,0,0,0,0,0,0,0,0,0,0
1293,129,5382,15450,342,0,0,0,0,0,0,0,0,0,0,0
1294,129,5436,15420,662,0,0,0,0,0,0,0,0,0,0,0
1295,129,5528,15494,620,0,0,0,0,0,0,0,0,0,0,0
1296,129,4952,15726,458,0,0,0,0,0,0,0,0,0,0,0
1297,129,5338,15430,326,0,0,0,0,0,0,0,0,0,0,0
1298,129,5046,15238,536,0,0,0,0,0,0,0,0,0,0,0
1299,129,5412,15556,96,0,0,0,0,0,0,0,0,0,0,0
1300,129,5286,15900,672,0,0,0,0,0,0,0,0,0,0,0
1301,129,5598,15440,460,0,0,0,0,0,0,0,0,0,0,0
1302,129,5508,15350,726,0,0,0,0,0,0,0,0,0,0,0
1303,129,4862,15692,572,0,0,0,0,0,0,0,0,0,0,0
1304,129,5260,15442,708,0,0,0,0,0,0,0,0,0,0,0
1305,129,5236,15558,476,0,0,0,0,0,0,0,0,0,0,0
1306,129,5826,15158,294,0,0,0,0,0,0,0,0,0,0,0
1307,129,5382,15356,606,0,0,0,0,0,0,0,0,0,0,0
1308,129,5326,15738,720,0,0,0,0,0,0,0,0,0,0,0
1309,129,5262,15552,440,0,0,0,0,0,0,0,0,0,0,0
1310,129,5236,15618,774,0,0,0,0,0,0,0,0,0,0,0
1311,129,5564,15370,422,0,0,0,0,0,0,0,0,0,0,0
1312,129,5430,15400,544,0,0,0,0,0,0,0,0,0,0,0
1313,129,5724,15234,412,0,0,0,0,0,0,0,0,0,0,0
1314,129,5380,15912,-68,0,0,0,0,0,0,0,0,0,0,0
1315,129,4666,15668,658,0,0,0,0,0,0,0,0,0,0,0
1316,129,4780,15832,958,0,0,0,0,0,0,0,0,0,0,0
1317,129,5314,15688,592,0,0,0,0,0,0,0,0,0,0,0
1318,129,5610,15358,288,0,0,0,0,0,0,0,0,0,0,0
1319,129,5226,15504,492,0,0,0,0,0,0,0,0,0,0,0
1320,129,5102,15422,860,0,0,0,0,0,0,0,0,0,0,0
1321,129,5336,15356,516,0,0,0,0,0,0,0,0,0,0,0
1322,129,5140,15802,740,0,0,0,0,0,0,0,0,0,0,0
1323,129,5282,15580,576,0,0,0,0,0,0,0,0,0,0,0
1324,129,5178,15584,416,0,0,0,0,0,0,0,0,0,0,0
1325,129,5482,15562,500,0,0,0,0,0,0,0,0,0,0,0
1326,129,5176,15660,620,0,0,0,0,0,0,0,0,0,0,0
1327,129,5496,15376,446,0,0,0,0,0,0,0,0,0,0,0
1328,129,5080,15654,714,0,0,0,0,0,0,0,0,0,0,0
1329,129,5324,15626,634,0,0,0,0,0,0,0,0,0,0,0
1330,129,5760,15716,518,0,0,0,0,0,0,0,0,0,0,0
1331,129,5280,15566,766,0,0,0,0,0,0,0,0,0,0,0
1332,129,5100,15422,874,0,0,0,0,0,0,0,0,0,0,0
1333,129,4994,15280,832,0,0,0,0,0,0,0,0,0,0,0
1334,129,5138,15550,846,0,0,0,0,0,0,0,0,0,0,0
1335,129,5176,15608,284,0,0,0,0,0,0,0,0,0,0,0
1336,129,5264,15412,698,0,0,0,0,0,0,0,0,0,0,0
1337,129,5596,15580,778,0,0,0,0,0,0,0,0,0,0,0
1338,129,5094,15394,764,0,0,0,0,0,0,0,0,0,0,0
1339,129,5512,15260,518,0,0,0,0,0,0,0,0,0,0,0
1340,129,5368,15166,546,0,0,0,0,0,0,0,0,0,0,0
1341,129,4834,15752,932,0,0,0,0,0,0,0,0,0,0,0
1342,129,4966,15780,806,0,0,0,0,0,0,0,0,0,0,0
1343,129,5194,15766,572,0,0,0,0,0,0,0,0,0,0,0
1344,129,5570,15602,824,0,0,0,0,0,0,0,0,0,0,0
1345,129,5428,15404,572,0,0,0,0,0,0,0,0,0,0,0
1346,129,5342,15246,670,0,0,0,0,0,0,0,0,0,0,0
1347,129,5104,15584,750,0,0,0,0,0,0,0,0,0,0,0
1348,129,5634,15492,442,0,0,0,0,0,0,0,0,0,0,0
1349,129,5040,15710,658,0,0,0,0,0,0,0,0,0,0,0
1350,129,4824,15278,704,0,0,0,0,0,0,0,0,0,0,0
1351,129,5106,15432,1140,0,0,0,0,0,0,0,0,0,0,0
1352,129,5586,15276,640,0,0,0,0,0,0,0,0,0,0,0
1353,129,5612,15386,652,0,0,0,0,0,0,0,0,0,0,0
1354,129,4996,15720,1046,0,0,0,0,0,0,0,0,0,0,0
1355,129,5194,15514,542,0,0,0,0,0,0,0,0,0,0,0
1356,129,5172,15386,694,0,0,0,0,0,0,0,0,0,0,0
1357,129,5780,14958,550,0,0,0,0,0,0,0,0,0,0,0
1358,129,5252,15810,878,0,0,0,0,0,0,0,0,0,0,0
1359,129,5362,15856,458,0,0,0,0,0,0,0,0,0,0,0
1360,129,5128,15836,498,0,0,0,0,0,0,0,0,0,0,0
1361,129,5486,15720,886,0,0,0,0,0,0,0,0,0,0,0
1362,129,5248,15266,424,0,0,0,0,0,0,0,0,0,0,0
1363,129,5494,15124,578,0,0,0,0,0,0,0,0,0,0,0
1364,129,5758,15094,522,0,0,0,0,0,0,0,0,0,0,0
1365,129,5416,15354,634,0,0,0,0,0,0,0,0,0,0,0
1366,129,5392,15516,858,0,0,0,0,0,0,0,0,0,0,0
1367,129,5300,15566,914,0,0,0,0,0,0,0,0,0,0,0
1368,129,5292,15744,948,0,0,0,0,0,0,0,0,0,0,0
1369,129,5632,15568,352,0,0,0,0,0,0,0,0,0,0,0
1370,129,5098,15536,832,0,0,0,0,0,0,0,0,0,0,0
1371,129,5670,15246,540,0,0,0,0,0,0,0,0,0,0,0
1372,129,5518,15476,656,0,0,0,0,0,0,0,0,0,0,0
1373,129,5344,15724,612,0,0,0,0,0,0,0,0,0,0,0
1374,129,5420,15572,754,0,0,0,0,0,0,0,0,0,0,0
1375,129,5452,15494,712,0,0,0,0,0,0,0,0,0,0,0
1376,129,5174,15338,924,0,0,0,0,0,0,0,0,0,0,0
1377,129,5318,15350,832,0,0,0,0,0,0,0,0,0,0,0
1378,129,5620,15100,678,0,0,0,0,0,0,0,0,0,0,0
1379,129,5452,15352,622,0,0,0,0,0,0,0,0,0,0,0
1380,129,5352,15564,720,0,0,0,0,0,0,0,0,0,0,0
1381,129,5620,15508,510,0,0,0,0,0,0,0,0,0,0,0
1382,129,5108,15702,810,0,0,0,0,0,0,0,0,0,0,0
1383,129,5496,15386,574,0,0,0,0,0,0,0,0,0,0,0
1384,129,5326,15482,798,0,0,0,0,0,0,0,0,0,0,0
1385,129,5660,15186,564,0,0,0,0,0,0,0,0,0,0,0
1386,129,5908,15172,562,0,0,0,0,0,0,0,0,0,0,0
1387,129,5372,15386,900,0,0,0,0,0,0,0,0,0,0,0
1388,129,5264,15770,972,0,0,0,0,0,0,0,0,0,0,0
1389,129,5576,15650,686,0,0,0,0,0,0,0,0,0,0,0
1390,129,5284,15648,980,0,0,0,0,0,0,0,0,0,0,0
1391,129,5436,15286,828,0,0,0,0,0,0,0,0,0,0,0
1392,129,5294,14904,1010,0,0,0,0,0,0,0,0,0,0,0
1393,129,5516,15106,764,0,0,0,0,0,0,0,0,0,0,0
1394,129,5594,15574,556,0,0,0,0,0,0,0,0,0,0,0
1395,129,5196,15702,878,0,0,0,0,0,0,0,0,0,0,0
1396,129,5390,15490,728,0,0,0,0,0,0,0,0,0,0,0
1397,129,5542,15334,780,0,0,0,0,0,0,0,0,0,0,0
1398,129,5116,15618,696,0,0,0,0,0,0,0,0,0,0,0
1399,129,5462,15474,516,0,0,0,0,0,0,0,0,0,0,0
1400,129,5676,15582,562,0,0,0,0,0,0,0,0,0,0,0
1401,129,5368,15802,974,0,0,0,0,0,0,0,0,0,0,0
1402,129,5658,15318,868,0,0,0,0,0,0,0,0,0,0,0
1403,129,5210,15372,986,0,0,0,0,0,0,0,0,0,0,0
1404,129,5174,15380,972,0,0,0,0,0,0,0,0,0,0,0
1405,129,5442,15256,774,0,0,0,0,0,0,0,0,0,0,0
1406,129,5170,15404,1014,0,0,0,0,0,0,0,0,0,0,0
1407,129,5704,15312,1044,0,0,0,0,0,0,0,0,0,0,0
1408,129,5390,15394,840,0,0,0,0,0,0,0,0,0,0,0
1409,129,5412,15536,872,0,0,0,0,0,0,0,0,0,0,0
1410,129,5354,15410,698,0,0,0,0,0,0,0,0,0,0,0
1411,129,6032,14562,200,0,0,0,0,0,0,0,0,0,0,0
1412,129,5314,15620,1186,0,0,0,0,0,0,0,0,0,0,0
1413,129,5090,15610,922,0,0,0,0,0,0,0,0,0,0,0
1414,129,5566,15472,636,0,0,0,0,0,0,0,0,0,0,0
1415,129,5248,15440,1022,0,0,0,0,0,0,0,0,0,0,0
1416,129,5556,15428,1060,0,0,0,0,0,0,0,0,0,0,0
1417,129,5418,15656,916,0,0,0,0,0,0,0,0,0,0,0
1418,129,5584,15822,610,0,0,0,0,0,0,0,0,0,0,0
1419,129,5208,15618,912,0,0,0,0,0,0,0,0,0,0,0
1420,129,5290,15734,1052,0,0,0,0,0,0,0,0,0,0,0
1421,129,5502,15660,640,0,0,0,0,0,0,0,0,0,0,0
1422,129,5328,15424,592,0,0,0,0,0,0,0,0,0,0,0
1423,129,5310,15200,1024,0,0,0,0,0,0,0,0,0,0,0
1424,129,5588,15202,534,0,0,0,0,0,0,0,0,0,0,0
1425,129,5520,15314,630,0,0,0,0,0,0,0,0,0,0,0
1426,129,5330,15352,984,0,0,0,0,0,0,0,0,0,0,0
1427,129,5646,15388,798,0,0,0,0,0,0,0,0,0,0,0
1428,129,5124,15102,1532,0,0,0,0,0,0,0,0,0,0,0
1429,129,5046,15190,1418,0,0,0,0,0,0,0,0,0,0,0
