ProgrNum,PacketType,AccX,AccY,AccZ,GyrX,GyrY,GyrZ,MagX,MagY,MagZ,Q0,Q1,Q2,Q3,Vbat
0,129,-320,16396,236,0,0,0,0,0,0,0,0,0,0,0
1,129,-306,16276,368,0,0,0,0,0,0,0,0,0,0,0
2,129,-430,16288,386,0,0,0,0,0,0,0,0,0,0,0
3,129,-284,16284,150,0,0,0,0,0,0,0,0,0,0,0
4,129,-238,16426,238,0,0,0,0,0,0,0,0,0,0,0
5,129,-54,16410,194,0,0,0,0,0,0,0,0,0,0,0
6,129,10,16552,78,0,0,0,0,0,0,0,0,0,0,0
7,129,-12,16568,144,0,0,0,0,0,0,0,0,0,0,0
8,129,-94,16554,4,0,0,0,0,0,0,0,0,0,0,0
9,129,-236,16344,142,0,0,0,0,0,0,0,0,0,0,0
10,129,-272,16490,110,0,0,0,0,0,0,0,0,0,0,0
11,129,-232,16444,162,0,0,0,0,0,0,0,0,0,0,0
12,129,-92,16454,74,0,0,0,0,0,0,0,0,0,0,0
13,129,-154,16496,66,0,0,0,0,0,0,0,0,0,0,0
14,129,-64,16510,-4,0,0,0,0,0,0,0,0,0,0,0
15,129,-236,16462,176,0,0,0,0,0,0,0,0,0,0,0
16,129,-342,16492,122,0,0,0,0,0,0,0,0,0,0,0
17,129,-190,16556,154,0,0,0,0,0,0,0,0,0,0,0
18,129,-268,16416,182,0,0,0,0,0,0,0,0,0,0,0
19,129,-186,16566,134,0,0,0,0,0,0,0,0,0,0,0
20,129,-162,16412,188,0,0,0,0,0,0,0,0,0,0,0
21,129,-294,16332,60,0,0,0,0,0,0,0,0,0,0,0
22,129,-148,16440,230,0,0,0,0,0,0,0,0,0,0,0
23,129,-274,16398,206,0,0,0,0,0,0,0,0,0,0,0
24,129,-170,16458,218,0,0,0,0,0,0,0,0,0,0,0
25,129,-190,16474,268,0,0,0,0,0,0,0,0,0,0,0
26,129,-264,16428,340,0,0,0,0,0,0,0,0,0,0,0
27,129,-328,16318,522,0,0,0,0,0,0,0,0,0,0,0
28,129,-456,16228,198,0,0,0,0,0,0,0,0,0,0,0
29,129,-134,16728,332,0,0,0,0,0,0,0,0,0,0,0
30,129,-156,16610,370,0,0,0,0,0,0,0,0,0,0,0
31,129,-258,16594,638,0,0,0,0,0,0,0,0,0,0,0
32,129,-392,16414,700,0,0,0,0,0,0,0,0,0,0,0
33,129,-522,16418,256,0,0,0,0,0,0,0,0,0,0,0
34,129,-740,16224,804,0,0,0,0,0,0,0,0,0,0,0
35,129,-710,16386,-122,0,0,0,0,0,0,0,0,0,0,0
36,129,-8178,19248,-9968,0,0,0,0,0,0,0,0,0,0,0
37,129,-1608,15810,-1590,0,0,0,0,0,0,0,0,0,0,0
38,129,-612,17064,910,0,0,0,0,0,0,0,0,0,0,0
39,129,-50,16536,748,0,0,0,0,0,0,0,0,0,0,0
40,129,-930,16130,474,0,0,0,0,0,0,0,0,0,0,0
41,129,-678,16428,390,0,0,0,0,0,0,0,0,0,0,0
42,129,-632,16466,128,0,0,0,0,0,0,0,0,0,0,0
43,129,-704,16392,22,0,0,0,0,0,0,0,0,0,0,0
44,129,-762,16430,6,0,0,0,0,0,0,0,0,0,0,0
45,129,-766,16426,134,0,0,0,0,0,0,0,0,0,0,0
46,129,-726,16376,324,0,0,0,0,0,0,0,0,0,0,0
47,129,-762,16460,82,0,0,0,0,0,0,0,0,0,0,0
48,129,-756,16222,50,0,0,0,0,0,0,0,0,0,0,0
49,129,-530,16464,148,0,0,0,0,0,0,0,0,0,0,0
50,129,-528,16586,188,0,0,0,0,0,0,0,0,0,0,0
51,129,-40,16184,80,0,0,0,0,0,0,0,0,0,0,0
52,129,-684,16368,418,0,0,0,0,0,0,0,0,0,0,0
53,129,-874,16160,-370,0,0,0,0,0,0,0,0,0,0,0
54,129,-632,16582,402,0,0,0,0,0,0,0,0,0,0,0
55,129,-720,16440,262,0,0,0,0,0,0,0,0,0,0,0
56,129,-800,16244,154,0,0,0,0,0,0,0,0,0,0,0
57,129,-710,16352,276,0,0,0,0,0,0,0,0,0,0,0
58,129,-672,16366,260,0,0,0,0,0,0,0,0,0,0,0
59,129,-600,16402,82,0,0,0,0,0,0,0,0,0,0,0
60,129,-522,16402,308,0,0,0,0,0,0,0,0,0,0,0
61,129,-444,16462,-24,0,0,0,0,0,0,0,0,0,0,0
62,129,-352,16526,328,0,0,0,0,0,0,0,0,0,0,0
63,129,-412,16430,260,0,0,0,0,0,0,0,0,0,0,0
64,129,-472,16324,288,0,0,0,0,0,0,0,0,0,0,0
65,129,-362,16240,164,0,0,0,0,0,0,0,0,0,0,0
66,129,-98,16640,148,0,0,0,0,0,0,0,0,0,0,0
67,129,-58,16630,178,0,0,0,0,0,0,0,0,0,0,0
68,129,-138,16568,208,0,0,0,0,0,0,0,0,0,0,0
69,129,60,16476,106,0,0,0,0,0,0,0,0,0,0,0
70,129,-418,16340,170,0,0,0,0,0,0,0,0,0,0,0
71,129,-88,16638,378,0,0,0,0,0,0,0,0,0,0,0
72,129,-282,16426,128,0,0,0,0,0,0,0,0,0,0,0
73,129,232,16186,322,0,0,0,0,0,0,0,0,0,0,0
74,129,-12,16404,124,0,0,0,0,0,0,0,0,0,0,0
75,129,52,16584,40,0,0,0,0,0,0,0,0,0,0,0
76,129,194,16654,94,0,0,0,0,0,0,0,0,0,0,0
77,129,-34,16380,292,0,0,0,0,0,0,0,0,0,0,0
78,129,68,16658,-332,0,0,0,0,0,0,0,0,0,0,0
79,129,10,16400,176,0,0,0,0,0,0,0,0,0,0,0
80,129,-100,16484,-6,0,0,0,0,0,0,0,0,0,0,0
81,129,-78,16504,154,0,0,0,0,0,0,0,0,0,0,0
82,129,-150,16418,120,0,0,0,0,0,0,0,0,0,0,0
83,129,-174,16452,110,0,0,0,0,0,0,0,0,0,0,0
84,129,-5540,19684,1270,0,0,0,0,0,0,0,0,0,0,0
85,129,66,16364,114,0,0,0,0,0,0,0,0,0,0,0
86,129,-328,16668,148,0,0,0,0,0,0,0,0,0,0,0
87,129,-144,16320,340,0,0,0,0,0,0,0,0,0,0,0
88,129,-60,16462,156,0,0,0,0,0,0,0,0,0,0,0
89,129,-46,16540,16,0,0,0,0,0,0,0,0,0,0,0
90,129,8,16460,-46,0,0,0,0,0,0,0,0,0,0,0
91,129,122,16562,-2,0,0,0,0,0,0,0,0,0,0,0
92,129,168,16662,300,0,0,0,0,0,0,0,0,0,0,0
93,129,160,16552,276,0,0,0,0,0,0,0,0,0,0,0
94,129,-34,16370,274,0,0,0,0,0,0,0,0,0,0,0
95,129,40,16330,384,0,0,0,0,0,0,0,0,0,0,0
96,129,38,16388,342,0,0,0,0,0,0,0,0,0,0,0
97,129,80,16428,138,0,0,0,0,0,0,0,0,0,0,0
98,129,154,16368,238,0,0,0,0,0,0,0,0,0,0,0
99,129,98,16450,270,0,0,0,0,0,0,0,0,0,0,0
100,129,192,16502,288,0,0,0,0,0,0,0,0,0,0,0
101,129,202,16390,306,0,0,0,0,0,0,0,0,0,0,0
102,129,82,16480,452,0,0,0,0,0,0,0,0,0,0,0
103,129,16,16404,328,0,0,0,0,0,0,0,0,0,0,0
104,129,350,15698,5374,0,0,0,0,0,0,0,0,0,0,0
105,129,30,16442,388,0,0,0,0,0,0,0,0,0,0,0
106,129,36,16406,432,0,0,0,0,0,0,0,0,0,0,0
107,129,118,16610,320,0,0,0,0,0,0,0,0,0,0,0
108,129,82,16552,398,0,0,0,0,0,0,0,0,0,0,0
109,129,-42,16412,358,0,0,0,0,0,0,0,0,0,0,0
110,129,-100,16342,452,0,0,0,0,0,0,0,0,0,0,0
111,129,-202,16296,438,0,0,0,0,0,0,0,0,0,0,0
112,129,-212,16344,504,0,0,0,0,0,0,0,0,0,0,0
113,129,-80,16480,420,0,0,0,0,0,0,0,0,0,0,0
114,129,-128,16388,490,0,0,0,0,0,0,0,0,0,0,0
115,129,-84,16378,478,0,0,0,0,0,0,0,0,0,0,0
116,129,-12,16512,432,0,0,0,0,0,0,0,0,0,0,0
117,129,-8,16542,476,0,0,0,0,0,0,0,0,0,0,0
118,129,-176,16380,302,0,0,0,0,0,0,0,0,0,0,0
119,129,-98,16464,480,0,0,0,0,0,0,0,0,0,0,0
120,129,8,16470,404,0,0,0,0,0,0,0,0,0,0,0
121,129,-56,16468,540,0,0,0,0,0,0,0,0,0,0,0
122,129,-10,16430,542,0,0,0,0,0,0,0,0,0,0,0
123,129,6,16472,362,0,0,0,0,0,0,0,0,0,0,0
124,129,-78,16410,500,0,0,0,0,0,0,0,0,0,0,0
125,129,-180,16312,434,0,0,0,0,0,0,0,0,0,0,0
126,129,-64,16448,454,0,0,0,0,0,0,0,0,0,0,0
127,129,94,16600,264,0,0,0,0,0,0,0,0,0,0,0
128,129,-78,16376,326,0,0,0,0,0,0,0,0,0,0,0
129,129,-104,16328,274,0,0,0,0,0,0,0,0,0,0,0
130,129,-24,16500,344,0,0,0,0,0,0,0,0,0,0,0
131,129,-4,16448,240,0,0,0,0,0,0,0,0,0,0,0
132,129,-10,16484,402,0,0,0,0,0,0,0,0,0,0,0
133,129,26,16402,270,0,0,0,0,0,0,0,0,0,0,0
134,129,58,16570,362,0,0,0,0,0,0,0,0,0,0,0
135,129,18,16546,210,0,0,0,0,0,0,0,0,0,0,0
136,129,28,16520,200,0,0,0,0,0,0,0,0,0,0,0
137,129,-120,16434,326,0,0,0,0,0,0,0,0,0,0,0
138,129,-62,16400,524,0,0,0,0,0,0,0,0,0,0,0
139,129,-190,16314,518,0,0,0,0,0,0,0,0,0,0,0
140,129,-6,16484,508,0,0,0,0,0,0,0,0,0,0,0
141,129,32,16434,384,0,0,0,0,0,0,0,0,0,0,0
142,129,22,16428,542,0,0,0,0,0,0,0,0,0,0,0
143,129,-22,16388,340,0,0,0,0,0,0,0,0,0,0,0
144,129,-26,16408,414,0,0,0,0,0,0,0,0,0,0,0
145,129,-82,16450,416,0,0,0,0,0,0,0,0,0,0,0
146,129,-28,16486,482,0,0,0,0,0,0,0,0,0,0,0
147,129,94,16460,514,0,0,0,0,0,0,0,0,0,0,0
148,129,64,16464,520,0,0,0,0,0,0,0,0,0,0,0
149,129,40,16408,338,0,0,0,0,0,0,0,0,0,0,0
150,129,88,16432,436,0,0,0,0,0,0,0,0,0,0,0
151,129,134,16384,460,0,0,0,0,0,0,0,0,0,0,0
152,129,108,16438,414,0,0,0,0,0,0,0,0,0,0,0
153,129,124,16450,426,0,0,0,0,0,0,0,0,0,0,0
154,129,126,16442,484,0,0,0,0,0,0,0,0,0,0,0
155,129,152,16430,398,0,0,0,0,0,0,0,0,0,0,0
156,129,86,16472,444,0,0,0,0,0,0,0,0,0,0,0
157,129,90,16450,370,0,0,0,0,0,0,0,0,0,0,0
158,129,76,16468,358,0,0,0,0,0,0,0,0,0,0,0
159,129,92,16482,424,0,0,0,0,0,0,0,0,0,0,0
160,129,50,16462,436,0,0,0,0,0,0,0,0,0,0,0
161,129,-12,16440,396,0,0,0,0,0,0,0,0,0,0,0
162,129,-20,16432,370,0,0,0,0,0,0,0,0,0,0,0
163,129,-22,16380,312,0,0,0,0,0,0,0,0,0,0,0
164,129,-20,16420,332,0,0,0,0,0,0,0,0,0,0,0
165,129,-40,16438,472,0,0,0,0,0,0,0,0,0,0,0
166,129,10,16472,456,0,0,0,0,0,0,0,0,0,0,0
167,129,70,16462,368,0,0,0,0,0,0,0,0,0,0,0
168,129,-32,16456,428,0,0,0,0,0,0,0,0,0,0,0
169,129,-18,16430,306,0,0,0,0,0,0,0,0,0,0,0
170,129,-34,16422,450,0,0,0,0,0,0,0,0,0,0,0
171,129,-22,16388,334,0,0,0,0,0,0,0,0,0,0,0
172,129,-76,16374,342,0,0,0,0,0,0,0,0,0,0,0
173,129,-66,16430,320,0,0,0,0,0,0,0,0,0,0,0
174,129,62,16572,450,0,0,0,0,0,0,0,0,0,0,0
175,129,70,16454,380,0,0,0,0,0,0,0,0,0,0,0
176,129,-86,16454,306,0,0,0,0,0,0,0,0,0,0,0
177,129,-80,16454,524,0,0,0,0,0,0,0,0,0,0,0
178,129,-32,16422,568,0,0,0,0,0,0,0,0,0,0,0
179,129,-8,16354,370,0,0,0,0,0,0,0,0,0,0,0
180,129,-18,16430,500,0,0,0,0,0,0,0,0,0,0,0
181,129,-68,16496,348,0,0,0,0,0,0,0,0,0,0,0
182,129,-82,16438,418,0,0,0,0,0,0,0,0,0,0,0
183,129,-152,16360,438,0,0,0,0,0,0,0,0,0,0,0
184,129,-96,16390,386,0,0,0,0,0,0,0,0,0,0,0
185,129,-104,16408,206,0,0,0,0,0,0,0,0,0,0,0
186,129,28,16432,644,0,0,0,0,0,0,0,0,0,0,0
187,129,-110,16386,366,0,0,0,0,0,0,0,0,0,0,0
188,129,0,16454,422,0,0,0,0,0,0,0,0,0,0,0
189,129,2,16424,296,0,0,0,0,0,0,0,0,0,0,0
190,129,-40,16466,490,0,0,0,0,0,0,0,0,0,0,0
191,129,4,16506,360,0,0,0,0,0,0,0,0,0,0,0
192,129,-90,16450,334,0,0,0,0,0,0,0,0,0,0,0
193,129,8,16390,288,0,0,0,0,0,0,0,0,0,0,0
194,129,-22,16466,412,0,0,0,0,0,0,0,0,0,0,0
195,129,-26,16454,352,0,0,0,0,0,0,0,0,0,0,0
196,129,-6,16500,414,0,0,0,0,0,0,0,0,0,0,0
197,129,64,16472,390,0,0,0,0,0,0,0,0,0,0,0
198,129,-82,16456,502,0,0,0,0,0,0,0,0,0,0,0
199,129,26,16484,326,0,0,0,0,0,0,0,0,0,0,0
200,129,16,16500,380,0,0,0,0,0,0,0,0,0,0,0
201,129,54,16464,226,0,0,0,0,0,0,0,0,0,0,0
202,129,-6,16450,396,0,0,0,0,0,0,0,0,0,0,0
203,129,14,16436,350,0,0,0,0,0,0,0,0,0,0,0
204,129,52,16440,442,0,0,0,0,0,0,0,0,0,0,0
205,129,-104,16334,422,0,0,0,0,0,0,0,0,0,0,0
206,129,38,16464,490,0,0,0,0,0,0,0,0,0,0,0
207,129,158,16524,414,0,0,0,0,0,0,0,0,0,0,0
208,129,84,16436,322,0,0,0,0,0,0,0,0,0,0,0
209,129,50,16470,238,0,0,0,0,0,0,0,0,0,0,0
210,129,72,16388,406,0,0,0,0,0,0,0,0,0,0,0
211,129,72,16508,254,0,0,0,0,0,0,0,0,0,0,0
212,129,70,16480,354,0,0,0,0,0,0,0,0,0,0,0
213,129,108,16428,362,0,0,0,0,0,0,0,0,0,0,0
214,129,104,16440,436,0,0,0,0,0,0,0,0,0,0,0
215,129,132,16480,366,0,0,0,0,0,0,0,0,0,0,0
216,129,164,16542,410,0,0,0,0,0,0,0,0,0,0,0
217,129,118,16474,464,0,0,0,0,0,0,0,0,0,0,0
218,129,88,16436,400,0,0,0,0,0,0,0,0,0,0,0
219,129,60,16438,304,0,0,0,0,0,0,0,0,0,0,0
220,129,62,16432,612,0,0,0,0,0,0,0,0,0,0,0
221,129,76,16460,282,0,0,0,0,0,0,0,0,0,0,0
222,129,146,16506,340,0,0,0,0,0,0,0,0,0,0,0
223,129,224,16682,306,0,0,0,0,0,0,0,0,0,0,0
224,129,90,16364,398,0,0,0,0,0,0,0,0,0,0,0
225,129,132,16488,372,0,0,0,0,0,0,0,0,0,0,0
226,129,110,16468,498,0,0,0,0,0,0,0,0,0,0,0
227,129,196,16442,492,0,0,0,0,0,0,0,0,0,0,0
228,129,82,16484,550,0,0,0,0,0,0,0,0,0,0,0
229,129,202,16356,348,0,0,0,0,0,0,0,0,0,0,0
230,129,128,16402,398,0,0,0,0,0,0,0,0,0,0,0
231,129,168,16542,296,0,0,0,0,0,0,0,0,0,0,0
232,129,204,16494,434,0,0,0,0,0,0,0,0,0,0,0
233,129,84,16410,438,0,0,0,0,0,0,0,0,0,0,0
234,129,90,16528,540,0,0,0,0,0,0,0,0,0,0,0
235,129,136,16440,340,0,0,0,0,0,0,0,0,0,0,0
236,129,142,16432,362,0,0,0,0,0,0,0,0,0,0,0
237,129,116,16346,348,0,0,0,0,0,0,0,0,0,0,0
238,129,162,16438,342,0,0,0,0,0,0,0,0,0,0,0
239,129,214,16478,326,0,0,0,0,0,0,0,0,0,0,0
240,129,236,16466,458,0,0,0,0,0,0,0,0,0,0,0
241,129,188,16458,410,0,0,0,0,0,0,0,0,0,0,0
242,129,154,16428,380,0,0,0,0,0,0,0,0,0,0,0
243,129,194,16378,416,0,0,0,0,0,0,0,0,0,0,0
244,129,-2510,16788,-1602,0,0,0,0,0,0,0,0,0,0,0
245,129,1098,16240,1192,0,0,0,0,0,0,0,0,0,0,0
246,129,172,16500,364,0,0,0,0,0,0,0,0,0,0,0
247,129,162,16470,296,0,0,0,0,0,0,0,0,0,0,0
248,129,190,16544,382,0,0,0,0,0,0,0,0,0,0,0
249,129,82,16488,252,0,0,0,0,0,0,0,0,0,0,0
250,129,60,16416,386,0,0,0,0,0,0,0,0,0,0,0
251,129,156,16448,370,0,0,0,0,0,0,0,0,0,0,0
252,129,220,16526,370,0,0,0,0,0,0,0,0,0,0,0
253,129,168,16460,332,0,0,0,0,0,0,0,0,0,0,0
254,129,132,16466,404,0,0,0,0,0,0,0,0,0,0,0
255,129,60,16496,458,0,0,0,0,0,0,0,0,0,0,0
256,129,-22,16440,432,0,0,0,0,0,0,0,0,0,0,0
257,129,46,16562,340,0,0,0,0,0,0,0,0,0,0,0
258,129,96,16530,472,0,0,0,0,0,0,0,0,0,0,0
259,129,38,16396,250,0,0,0,0,0,0,0,0,0,0,0
260,129,34,16422,510,0,0,0,0,0,0,0,0,0,0,0
261,129,-76,16478,518,0,0,0,0,0,0,0,0,0,0,0
262,129,2,16434,364,0,0,0,0,0,0,0,0,0,0,0
263,129,28,16462,400,0,0,0,0,0,0,0,0,0,0,0
264,129,-122,16410,584,0,0,0,0,0,0,0,0,0,0,0
265,129,130,16188,400,0,0,0,0,0,0,0,0,0,0,0
266,129,-306,16438,566,0,0,0,0,0,0,0,0,0,0,0
267,129,-114,16388,590,0,0,0,0,0,0,0,0,0,0,0
268,129,-218,16444,626,0,0,0,0,0,0,0,0,0,0,0
269,129,4,16420,458,0,0,0,0,0,0,0,0,0,0,0
270,129,-108,16378,558,0,0,0,0,0,0,0,0,0,0,0
271,129,-58,16450,710,0,0,0,0,0,0,0,0,0,0,0
272,129,-296,16484,1106,0,0,0,0,0,0,0,0,0,0,0
273,129,-54,16440,746,0,0,0,0,0,0,0,0,0,0,0
274,129,-162,16578,-838,0,0,0,0,0,0,0,0,0,0,0
275,129,-434,16370,586,0,0,0,0,0,0,0,0,0,0,0
276,129,-48,16442,554,0,0,0,0,0,0,0,0,0,0,0
277,129,-48,16492,678,0,0,0,0,0,0,0,0,0,0,0
278,129,-126,16532,1082,0,0,0,0,0,0,0,0,0,0,0
279,129,-88,16644,958,0,0,0,0,0,0,0,0,0,0,0
280,129,-128,16832,876,0,0,0,0,0,0,0,0,0,0,0
281,129,-212,16446,980,0,0,0,0,0,0,0,0,0,0,0
282,129,62,16222,1134,0,0,0,0,0,0,0,0,0,0,0
283,129,-334,16320,762,0,0,0,0,0,0,0,0,0,0,0
284,129,-96,16170,1130,0,0,0,0,0,0,0,0,0,0,0
285,129,-54,16240,948,0,0,0,0,0,0,0,0,0,0,0
286,129,136,16636,1236,0,0,0,0,0,0,0,0,0,0,0
287,129,-24,16518,1010,0,0,0,0,0,0,0,0,0,0,0
288,129,126,16380,1316,0,0,0,0,0,0,0,0,0,0,0
289,129,-128,16470,1158,0,0,0,0,0,0,0,0,0,0,0
290,129,-164,16438,1288,0,0,0,0,0,0,0,0,0,0,0
291,129,290,16336,1526,0,0,0,0,0,0,0,0,0,0,0
292,129,-50,16394,1398,0,0,0,0,0,0,0,0,0,0,0
293,129,-208,16628,1314,0,0,0,0,0,0,0,0,0,0,0
294,129,-192,16500,1346,0,0,0,0,0,0,0,0,0,0,0
295,129,-56,16578,1422,0,0,0,0,0,0,0,0,0,0,0
296,129,132,16278,1618,0,0,0,0,0,0,0,0,0,0,0
297,129,-68,16578,1646,0,0,0,0,0,0,0,0,0,0,0
298,129,144,16734,1884,0,0,0,0,0,0,0,0,0,0,0
299,129,90,16406,2074,0,0,0,0,0,0,0,0,0,0,0
300,129,-48,16386,2482,0,0,0,0,0,0,0,0,0,0,0
301,129,-168,16532,1862,0,0,0,0,0,0,0,0,0,0,0
302,129,-28,16244,2188,0,0,0,0,0,0,0,0,0,0,0
303,129,-22,16126,2130,0,0,0,0,0,0,0,0,0,0,0
304,129,4,15964,2332,0,0,0,0,0,0,0,0,0,0,0
305,129,-472,16054,2672,0,0,0,0,0,0,0,0,0,0,0
306,129,-400,16370,2576,0,0,0,0,0,0,0,0,0,0,0
307,129,-38,16304,2786,0,0,0,0,0,0,0,0,0,0,0
308,129,-90,16164,2976,0,0,0,0,0,0,0,0,0,0,0
309,129,-98,15906,3180,0,0,0,0,0,0,0,0,0,0,0
310,129,-274,15940,3220,0,0,0,0,0,0,0,0,0,0,0
311,129,154,15934,3484,0,0,0,0,0,0,0,0,0,0,0
312,129,-370,16976,3358,0,0,0,0,0,0,0,0,0,0,0
313,129,-230,16006,3716,0,0,0,0,0,0,0,0,0,0,0
314,129,-142,15810,3504,0,0,0,0,0,0,0,0,0,0,0
315,129,-10,15482,3808,0,0,0,0,0,0,0,0,0,0,0
316,129,-302,15788,3812,0,0,0,0,0,0,0,0,0,0,0
317,129,-272,15414,4268,0,0,0,0,0,0,0,0,0,0,0
318,129,-264,15906,4428,0,0,0,0,0,0,0,0,0,0,0
319,129,196,16032,4512,0,0,0,0,0,0,0,0,0,0,0
320,129,-380,16242,4946,0,0,0,0,0,0,0,0,0,0,0
321,129,18,15964,4864,0,0,0,0,0,0,0,0,0,0,0
322,129,-604,16152,5980,0,0,0,0,0,0,0,0,0,0,0
323,129,248,15458,4670,0,0,0,0,0,0,0,0,0,0,0
324,129,-20,15862,5324,0,0,0,0,0,0,0,0,0,0,0
325,129,-186,15886,5838,0,0,0,0,0,0,0,0,0,0,0
326,129,-250,16086,6236,0,0,0,0,0,0,0,0,0,0,0
327,129,-482,15648,6228,0,0,0,0,0,0,0,0,0,0,0
328,129,18,15348,7210,0,0,0,0,0,0,0,0,0,0,0
329,129,1406,14590,5830,0,0,0,0,0,0,0,0,0,0,0
330,129,-1058,15040,10144,0,0,0,0,0,0,0,0,0,0,0
331,129,504,15262,5658,0,0,0,0,0,0,0,0,0,0,0
332,129,-446,14348,7686,0,0,0,0,0,0,0,0,0,0,0
333,129,-360,13982,9292,0,0,0,0,0,0,0,0,0,0,0
334,129,-62,14078,9344,0,0,0,0,0,0,0,0,0,0,0
335,129,166,13832,9848,0,0,0,0,0,0,0,0,0,0,0
336,129,266,13820,10240,0,0,0,0,0,0,0,0,0,0,0
337,129,960,12666,10158,0,0,0,0,0,0,0,0,0,0,0
338,129,850,12384,9178,0,0,0,0,0,0,0,0,0,0,0
339,129,1032,12374,11152,0,0,0,0,0,0,0,0,0,0,0
340,129,846,12590,11072,0,0,0,0,0,0,0,0,0,0,0
341,129,878,12216,9916,0,0,0,0,0,0,0,0,0,0,0
342,129,1042,11240,11374,0,0,0,0,0,0,0,0,0,0,0
343,129,872,10332,10590,0,0,0,0,0,0,0,0,0,0,0
344,129,728,9820,13156,0,0,0,0,0,0,0,0,0,0,0
345,129,366,10108,11692,0,0,0,0,0,0,0,0,0,0,0
346,129,386,10156,12372,0,0,0,0,0,0,0,0,0,0,0
347,129,562,9520,12716,0,0,0,0,0,0,0,0,0,0,0
348,129,-40,9910,13440,0,0,0,0,0,0,0,0,0,0,0
349,129,880,8874,14046,0,0,0,0,0,0,0,0,0,0,0
350,129,994,8378,13452,0,0,0,0,0,0,0,0,0,0,0
351,129,768,8458,15868,0,0,0,0,0,0,0,0,0,0,0
352,129,1824,8520,16544,0,0,0,0,0,0,0,0,0,0,0
353,129,514,8930,14686,0,0,0,0,0,0,0,0,0,0,0
354,129,-170,8346,14468,0,0,0,0,0,0,0,0,0,0,0
355,129,-102,7554,13882,0,0,0,0,0,0,0,0,0,0,0
356,129,-564,7990,12076,0,0,0,0,0,0,0,0,0,0,0
357,129,376,8122,8796,0,0,0,0,0,0,0,0,0,0,0
358,129,30,4352,16450,0,0,0,0,0,0,0,0,0,0,0
359,129,198,7066,12930,0,0,0,0,0,0,0,0,0,0,0
360,129,606,4154,18554,0,0,0,0,0,0,0,0,0,0,0
361,129,-4,5418,14334,0,0,0,0,0,0,0,0,0,0,0
362,129,160,5964,13858,0,0,0,0,0,0,0,0,0,0,0
363,129,162,3112,18488,0,0,0,0,0,0,0,0,0,0,0
364,129,24,4298,15016,0,0,0,0,0,0,0,0,0,0,0
365,129,-242,4554,13860,0,0,0,0,0,0,0,0,0,0,0
366,129,826,2026,18318,0,0,0,0,0,0,0,0,0,0,0
367,129,-470,3462,15876,0,0,0,0,0,0,0,0,0,0,0
368,129,-430,3780,14698,0,0,0,0,0,0,0,0,0,0,0
369,129,-404,3144,15602,0,0,0,0,0,0,0,0,0,0,0
370,129,-344,2562,15668,0,0,0,0,0,0,0,0,0,0,0
371,129,-70,3100,16786,0,0,0,0,0,0,0,0,0,0,0
372,129,-566,2890,15910,0,0,0,0,0,0,0,0,0,0,0
373,129,-854,3226,16090,0,0,0,0,0,0,0,0,0,0,0
374,129,-174,2392,15834,0,0,0,0,0,0,0,0,0,0,0
375,129,-830,2876,14222,0,0,0,0,0,0,0,0,0,0,0
376,129,-580,2300,15532,0,0,0,0,0,0,0,0,0,0,0
377,129,-798,2440,15712,0,0,0,0,0,0,0,0,0,0,0
378,129,-376,2558,14988,0,0,0,0,0,0,0,0,0,0,0
379,129,-208,1406,15894,0,0,0,0,0,0,0,0,0,0,0
380,129,-494,1416,20120,0,0,0,0,0,0,0,0,0,0,0
381,129,172,556,17196,0,0,0,0,0,0,0,0,0,0,0
382,129,-288,986,15362,0,0,0,0,0,0,0,0,0,0,0
383,129,-528,886,15902,0,0,0,0,0,0,0,0,0,0,0
384,129,-424,670,16392,0,0,0,0,0,0,0,0,0,0,0
385,129,-530,558,16566,0,0,0,0,0,0,0,0,0,0,0
386,129,-802,1010,16006,0,0,0,0,0,0,0,0,0,0,0
387,129,-392,674,15800,0,0,0,0,0,0,0,0,0,0,0
388,129,-650,608,15980,0,0,0,0,0,0,0,0,0,0,0
389,129,-970,498,16546,0,0,0,0,0,0,0,0,0,0,0
390,129,-864,612,16594,0,0,0,0,0,0,0,0,0,0,0
391,129,-754,668,16216,0,0,0,0,0,0,0,0,0,0,0
392,129,-848,722,15856,0,0,0,0,0,0,0,0,0,0,0
393,129,-784,872,16052,0,0,0,0,0,0,0,0,0,0,0
394,129,-700,732,15924,0,0,0,0,0,0,0,0,0,0,0
395,129,-908,522,16744,0,0,0,0,0,0,0,0,0,0,0
396,129,-986,668,16526,0,0,0,0,0,0,0,0,0,0,0
397,129,-1074,712,16478,0,0,0,0,0,0,0,0,0,0,0
398,129,-1030,708,16132,0,0,0,0,0,0,0,0,0,0,0
399,129,-740,732,15616,0,0,0,0,0,0,0,0,0,0,0
400,129,-932,776,16120,0,0,0,0,0,0,0,0,0,0,0
401,129,-1168,662,16040,0,0,0,0,0,0,0,0,0,0,0
402,129,-1200,720,16362,0,0,0,0,0,0,0,0,0,0,0
403,129,-1120,642,15992,0,0,0,0,0,0,0,0,0,0,0
404,129,-1090,680,16292,0,0,0,0,0,0,0,0,0,0,0
405,129,-1192,740,16488,0,0,0,0,0,0,0,0,0,0,0
406,129,-1010,720,16194,0,0,0,0,0,0,0,0,0,0,0
407,129,-920,648,16156,0,0,0,0,0,0,0,0,0,0,0
408,129,-1252,744,16448,0,0,0,0,0,0,0,0,0,0,0
409,129,-1222,672,16386,0,0,0,0,0,0,0,0,0,0,0
410,129,-1302,766,16124,0,0,0,0,0,0,0,0,0,0,0
411,129,-1288,664,16196,0,0,0,0,0,0,0,0,0,0,0
412,129,-1104,734,16208,0,0,0,0,0,0,0,0,0,0,0
413,129,-1120,792,16122,0,0,0,0,0,0,0,0,0,0,0
414,129,-1096,758,15596,0,0,0,0,0,0,0,0,0,0,0
415,129,-1340,728,16330,0,0,0,0,0,0,0,0,0,0,0
416,129,-1282,796,16264,0,0,0,0,0,0,0,0,0,0,0
417,129,-1146,738,16218,0,0,0,0,0,0,0,0,0,0,0
418,129,-1248,808,16358,0,0,0,0,0,0,0,0,0,0,0
419,129,-1138,770,16112,0,0,0,0,0,0,0,0,0,0,0
420,129,-1296,630,16242,0,0,0,0,0,0,0,0,0,0,0
421,129,-1394,754,16294,0,0,0,0,0,0,0,0,0,0,0
422,129,-1474,808,16318,0,0,0,0,0,0,0,0,0,0,0
423,129,-1298,826,16062,0,0,0,0,0,0,0,0,0,0,0
424,129,-1374,678,16658,0,0,0,0,0,0,0,0,0,0,0
425,129,-1334,610,16130,0,0,0,0,0,0,0,0,0,0,0
426,129,-1220,658,16306,0,0,0,0,0,0,0,0,0,0,0
427,129,-1656,830,16186,0,0,0,0,0,0,0,0,0,0,0
428,129,-1562,736,15968,0,0,0,0,0,0,0,0,0,0,0
429,129,-1574,758,16186,0,0,0,0,0,0,0,0,0,0,0
430,129,-1458,678,16324,0,0,0,0,0,0,0,0,0,0,0
431,129,-1500,844,16148,0,0,0,0,0,0,0,0,0,0,0
432,129,-1414,636,16040,0,0,0,0,0,0,0,0,0,0,0
433,129,-1376,648,16420,0,0,0,0,0,0,0,0,0,0,0
434,129,-1438,716,16414,0,0,0,0,0,0,0,0,0,0,0
435,129,-1380,772,16076,0,0,0,0,0,0,0,0,0,0,0
436,129,-1494,832,16030,0,0,0,0,0,0,0,0,0,0,0
437,129,-1536,780,16372,0,0,0,0,0,0,0,0,0,0,0
438,129,-1522,616,16350,0,0,0,0,0,0,0,0,0,0,0
439,129,-1526,776,16232,0,0,0,0,0,0,0,0,0,0,0
440,129,-1370,818,16132,0,0,0,0,0,0,0,0,0,0,0
441,129,-1510,788,16170,0,0,0,0,0,0,0,0,0,0,0
442,129,-1620,888,16332,0,0,0,0,0,0,0,0,0,0,0
443,129,-1294,708,16124,0,0,0,0,0,0,0,0,0,0,0
444,129,-1352,750,16080,0,0,0,0,0,0,0,0,0,0,0
445,129,-1624,964,16472,0,0,0,0,0,0,0,0,0,0,0
446,129,-1444,922,16260,0,0,0,0,0,0,0,0,0,0,0
447,129,-1156,936,16206,0,0,0,0,0,0,0,0,0,0,0
448,129,-1178,948,16164,0,0,0,0,0,0,0,0,0,0,0
449,129,-1332,920,16108,0,0,0,0,0,0,0,0,0,0,0
450,129,-1512,934,16204,0,0,0,0,0,0,0,0,0,0,0
451,129,-1490,862,16136,0,0,0,0,0,0,0,0,0,0,0
452,129,-1324,884,15982,0,0,0,0,0,0,0,0,0,0,0
453,129,-1216,1020,16104,0,0,0,0,0,0,0,0,0,0,0
454,129,-1256,896,16284,0,0,0,0,0,0,0,0,0,0,0
455,129,-1408,1012,16380,0,0,0,0,0,0,0,0,0,0,0
456,129,-1188,926,16020,0,0,0,0,0,0,0,0,0,0,0
457,129,-1124,872,15894,0,0,0,0,0,0,0,0,0,0,0
458,129,-1342,962,16502,0,0,0,0,0,0,0,0,0,0,0
459,129,-1086,978,16194,0,0,0,0,0,0,0,0,0,0,0
460,129,-1150,896,16292,0,0,0,0,0,0,0,0,0,0,0
461,129,-1334,936,16468,0,0,0,0,0,0,0,0,0,0,0
462,129,-1318,1032,16412,0,0,0,0,0,0,0,0,0,0,0
463,129,-1238,936,16052,0,0,0,0,0,0,0,0,0,0,0
464,129,-1176,1068,16086,0,0,0,0,0,0,0,0,0,0,0
465,129,-1358,958,16224,0,0,0,0,0,0,0,0,0,0,0
466,129,-1390,888,16016,0,0,0,0,0,0,0,0,0,0,0
467,129,-1434,930,16208,0,0,0,0,0,0,0,0,0,0,0
468,129,-1270,996,16182,0,0,0,0,0,0,0,0,0,0,0
469,129,-1300,1092,16212,0,0,0,0,0,0,0,0,0,0,0
470,129,-1492,892,16256,0,0,0,0,0,0,0,0,0,0,0
471,129,-1368,970,16076,0,0,0,0,0,0,0,0,0,0,0
472,129,-1546,1020,16304,0,0,0,0,0,0,0,0,0,0,0
473,129,-1298,940,15878,0,0,0,0,0,0,0,0,0,0,0
474,129,-1420,1098,15740,0,0,0,0,0,0,0,0,0,0,0
475,129,-1280,948,16080,0,0,0,0,0,0,0,0,0,0,0
476,129,-1096,864,16074,0,0,0,0,0,0,0,0,0,0,0
477,129,-1228,984,16496,0,0,0,0,0,0,0,0,0,0,0
478,129,-1300,1060,16302,0,0,0,0,0,0,0,0,0,0,0
479,129,-1256,860,16030,0,0,0,0,0,0,0,0,0,0,0
480,129,-1258,860,16232,0,0,0,0,0,0,0,0,0,0,0
481,129,-1306,918,16158,0,0,0,0,0,0,0,0,0,0,0
482,129,-998,944,15956,0,0,0,0,0,0,0,0,0,0,0
483,129,-1206,1036,16328,0,0,0,0,0,0,0,0,0,0,0
484,129,-1270,940,16232,0,0,0,0,0,0,0,0,0,0,0
485,129,-1402,1070,16346,0,0,0,0,0,0,0,0,0,0,0
486,129,-1350,1052,16184,0,0,0,0,0,0,0,0,0,0,0
487,129,-1390,968,16090,0,0,0,0,0,0,0,0,0,0,0
488,129,-1242,988,15990,0,0,0,0,0,0,0,0,0,0,0
489,129,-1286,1026,16106,0,0,0,0,0,0,0,0,0,0,0
490,129,-1396,992,16600,0,0,0,0,0,0,0,0,0,0,0
491,129,-1446,920,16108,0,0,0,0,0,0,0,0,0,0,0
492,129,-1308,968,16206,0,0,0,0,0,0,0,0,0,0,0
493,129,-1130,920,16022,0,0,0,0,0,0,0,0,0,0,0
494,129,-1158,942,15966,0,0,0,0,0,0,0,0,0,0,0
495,129,-1392,996,16192,0,0,0,0,0,0,0,0,0,0,0
496,129,-1470,956,16460,0,0,0,0,0,0,0,0,0,0,0
497,129,-1324,972,16528,0,0,0,0,0,0,0,0,0,0,0
498,129,-1202,1006,15770,0,0,0,0,0,0,0,0,0,0,0
499,129,-1134,1024,16162,0,0,0,0,0,0,0,0,0,0,0
500,129,-1160,930,16172,0,0,0,0,0,0,0,0,0,0,0
501,129,-1414,1038,16164,0,0,0,0,0,0,0,0,0,0,0
502,129,-1570,1104,16270,0,0,0,0,0,0,0,0,0,0,0
503,129,-1322,1022,16236,0,0,0,0,0,0,0,0,0,0,0
504,129,-1214,956,16096,0,0,0,0,0,0,0,0,0,0,0
505,129,-1226,1002,15950,0,0,0,0,0,0,0,0,0,0,0
506,129,-1326,1024,16298,0,0,0,0,0,0,0,0,0,0,0
507,129,-1500,1068,16452,0,0,0,0,0,0,0,0,0,0,0
508,129,-1394,964,16258,0,0,0,0,0,0,0,0,0,0,0
509,129,-1256,934,16134,0,0,0,0,0,0,0,0,0,0,0
510,129,-1242,1036,16112,0,0,0,0,0,0,0,0,0,0,0
511,129,-1196,902,16306,0,0,0,0,0,0,0,0,0,0,0
512,129,-1224,1054,16066,0,0,0,0,0,0,0,0,0,0,0
513,129,-1402,1020,16234,0,0,0,0,0,0,0,0,0,0,0
514,129,-1560,978,16668,0,0,0,0,0,0,0,0,0,0,0
515,129,-1234,1020,16262,0,0,0,0,0,0,0,0,0,0,0
516,129,-1114,1046,15862,0,0,0,0,0,0,0,0,0,0,0
517,129,-1238,956,15822,0,0,0,0,0,0,0,0,0,0,0
518,129,-1338,972,16138,0,0,0,0,0,0,0,0,0,0,0
519,129,-1474,872,15886,0,0,0,0,0,0,0,0,0,0,0
520,129,-1306,1066,16270,0,0,0,0,0,0,0,0,0,0,0
521,129,-1530,1142,16286,0,0,0,0,0,0,0,0,0,0,0
522,129,-984,858,15714,0,0,0,0,0,0,0,0,0,0,0
523,129,-1176,960,16142,0,0,0,0,0,0,0,0,0,0,0
524,129,-1338,1028,16308,0,0,0,0,0,0,0,0,0,0,0
525,129,-1424,934,15920,0,0,0,0,0,0,0,0,0,0,0
526,129,-1318,938,16326,0,0,0,0,0,0,0,0,0,0,0
527,129,-1262,974,16330,0,0,0,0,0,0,0,0,0,0,0
528,129,-1216,910,15980,0,0,0,0,0,0,0,0,0,0,0
529,129,-1246,1070,15866,0,0,0,0,0,0,0,0,0,0,0
530,129,-1422,1142,16242,0,0,0,0,0,0,0,0,0,0,0
531,129,-1408,1002,16284,0,0,0,0,0,0,0,0,0,0,0
532,129,-1316,940,16230,0,0,0,0,0,0,0,0,0,0,0
533,129,-1230,1000,16118,0,0,0,0,0,0,0,0,0,0,0
534,129,-1276,1184,16130,0,0,0,0,0,0,0,0,0,0,0
535,129,-1304,1156,16374,0,0,0,0,0,0,0,0,0,0,0
536,129,-1250,1104,16342,0,0,0,0,0,0,0,0,0,0,0
537,129,-1288,1062,16070,0,0,0,0,0,0,0,0,0,0,0
538,129,-1222,1114,15844,0,0,0,0,0,0,0,0,0,0,0
539,129,-1422,1080,16306,0,0,0,0,0,0,0,0,0,0,0
540,129,-1238,1184,16038,0,0,0,0,0,0,0,0,0,0,0
541,129,-1358,1110,16150,0,0,0,0,0,0,0,0,0,0,0
542,129,-1334,1010,16212,0,0,0,0,0,0,0,0,0,0,0
543,129,-1230,1084,16086,0,0,0,0,0,0,0,0,0,0,0
544,129,-1334,1238,16232,0,0,0,0,0,0,0,0,0,0,0
545,129,-1172,1238,15966,0,0,0,0,0,0,0,0,0,0,0
546,129,-1482,1076,16170,0,0,0,0,0,0,0,0,0,0,0
547,129,-1330,1174,16368,0,0,0,0,0,0,0,0,0,0,0
548,129,-1264,1176,16302,0,0,0,0,0,0,0,0,0,0,0
549,129,-1468,1294,16108,0,0,0,0,0,0,0,0,0,0,0
550,129,-1308,1182,16042,0,0,0,0,0,0,0,0,0,0,0
551,129,-1332,1148,16188,0,0,0,0,0,0,0,0,0,0,0
552,129,-1366,1052,16354,0,0,0,0,0,0,0,0,0,0,0
553,129,-1370,1084,16130,0,0,0,0,0,0,0,0,0,0,0
554,129,-1486,1168,16550,0,0,0,0,0,0,0,0,0,0,0
555,129,-1136,1088,16072,0,0,0,0,0,0,0,0,0,0,0
556,129,-1368,1138,16246,0,0,0,0,0,0,0,0,0,0,0
557,129,-1414,1072,15970,0,0,0,0,0,0,0,0,0,0,0
558,129,-1356,1134,16286,0,0,0,0,0,0,0,0,0,0,0
559,129,-1310,1194,15982,0,0,0,0,0,0,0,0,0,0,0
560,129,-1424,1120,16302,0,0,0,0,0,0,0,0,0,0,0
561,129,-1280,1012,15786,0,0,0,0,0,0,0,0,0,0,0
562,129,-1374,962,16330,0,0,0,0,0,0,0,0,0,0,0
563,129,-1118,1088,15564,0,0,0,0,0,0,0,0,0,0,0
564,129,-1378,1124,16402,0,0,0,0,0,0,0,0,0,0,0
565,129,-1476,1134,16006,0,0,0,0,0,0,0,0,0,0,0
566,129,-1354,1172,16380,0,0,0,0,0,0,0,0,0,0,0
567,129,-1406,1194,16252,0,0,0,0,0,0,0,0,0,0,0
568,129,-1356,1122,16038,0,0,0,0,0,0,0,0,0,0,0
569,129,-1194,1044,16076,0,0,0,0,0,0,0,0,0,0,0
570,129,-1300,1128,16222,0,0,0,0,0,0,0,0,0,0,0
571,129,-1264,1032,15866,0,0,0,0,0,0,0,0,0,0,0
572,129,-1260,1018,16248,0,0,0,0,0,0,0,0,0,0,0
573,129,-1328,1086,16192,0,0,0,0,0,0,0,0,0,0,0
574,129,-1318,1202,16466,0,0,0,0,0,0,0,0,0,0,0
575,129,-1282,1132,16150,0,0,0,0,0,0,0,0,0,0,0
576,129,-1418,1190,16346,0,0,0,0,0,0,0,0,0,0,0
577,129,-1224,1038,15994,0,0,0,0,0,0,0,0,0,0,0
578,129,-1248,1172,16054,0,0,0,0,0,0,0,0,0,0,0
579,129,-1394,1212,16312,0,0,0,0,0,0,0,0,0,0,0
580,129,-1564,1136,16484,0,0,0,0,0,0,0,0,0,0,0
581,129,-1306,1110,16096,0,0,0,0,0,0,0,0,0,0,0
582,129,-1362,1162,16088,0,0,0,0,0,0,0,0,0,0,0
583,129,-1242,1144,16260,0,0,0,0,0,0,0,0,0,0,0
584,129,-1194,1240,16140,0,0,0,0,0,0,0,0,0,0,0
585,129,-1364,1216,16416,0,0,0,0,0,0,0,0,0,0,0
586,129,-1348,1118,16106,0,0,0,0,0,0,0,0,0,0,0
587,129,-1372,1120,16388,0,0,0,0,0,0,0,0,0,0,0
588,129,-1286,1242,16344,0,0,0,0,0,0,0,0,0,0,0
589,129,-1044,1238,15720,0,0,0,0,0,0,0,0,0,0,0
590,129,-1172,1238,16148,0,0,0,0,0,0,0,0,0,0,0
591,129,-1314,1096,16222,0,0,0,0,0,0,0,0,0,0,0
592,129,-1488,1192,16358,0,0,0,0,0,0,0,0,0,0,0
593,129,-1326,1214,16076,0,0,0,0,0,0,0,0,0,0,0
594,129,-1126,1208,15906,0,0,0,0,0,0,0,0,0,0,0
595,129,-1080,1166,15954,0,0,0,0,0,0,0,0,0,0,0
596,129,-1376,1210,16478,0,0,0,0,0,0,0,0,0,0,0
597,129,-1486,1234,16332,0,0,0,0,0,0,0,0,0,0,0
598,129,-1416,1158,16248,0,0,0,0,0,0,0,0,0,0,0
599,129,-1286,1140,15890,0,0,0,0,0,0,0,0,0,0,0
600,129,-1154,1244,15834,0,0,0,0,0,0,0,0,0,0,0
601,129,-1232,1140,15888,0,0,0,0,0,0,0,0,0,0,0
602,129,-1416,1184,16472,0,0,0,0,0,0,0,0,0,0,0
603,129,-1472,1094,16046,0,0,0,0,0,0,0,0,0,0,0
604,129,-1430,1180,16382,0,0,0,0,0,0,0,0,0,0,0
605,129,-1268,1216,16006,0,0,0,0,0,0,0,0,0,0,0
606,129,-1226,1206,16116,0,0,0,0,0,0,0,0,0,0,0
607,129,-1334,1166,15816,0,0,0,0,0,0,0,0,0,0,0
608,129,-1470,1100,16382,0,0,0,0,0,0,0,0,0,0,0
609,129,-1510,1228,16552,0,0,0,0,0,0,0,0,0,0,0
610,129,-1290,1188,15730,0,0,0,0,0,0,0,0,0,0,0
611,129,-1222,1194,15956,0,0,0,0,0,0,0,0,0,0,0
612,129,-1174,1128,15964,0,0,0,0,0,0,0,0,0,0,0
613,129,-1400,1216,16030,0,0,0,0,0,0,0,0,0,0,0
614,129,-1578,1306,16228,0,0,0,0,0,0,0,0,0,0,0
615,129,-1550,1210,16278,0,0,0,0,0,0,0,0,0,0,0
616,129,-1366,1226,16156,0,0,0,0,0,0,0,0,0,0,0
617,129,-1246,1186,15968,0,0,0,0,0,0,0,0,0,0,0
618,129,-1276,1248,16208,0,0,0,0,0,0,0,0,0,0,0
619,129,-1424,1232,16294,0,0,0,0,0,0,0,0,0,0,0
620,129,-1554,1254,16376,0,0,0,0,0,0,0,0,0,0,0
621,129,-1244,1208,16272,0,0,0,0,0,0,0,0,0,0,0
622,129,-1164,1204,16086,0,0,0,0,0,0,0,0,0,0,0
623,129,-1050,1154,15862,0,0,0,0,0,0,0,0,0,0,0
624,129,-1374,1110,16172,0,0,0,0,0,0,0,0,0,0,0
625,129,-1604,1330,16454,0,0,0,0,0,0,0,0,0,0,0
626,129,-1438,1228,16324,0,0,0,0,0,0,0,0,0,0,0
627,129,-1232,1284,16126,0,0,0,0,0,0,0,0,0,0,0
628,129,-976,1120,15986,0,0,0,0,0,0,0,0,0,0,0
629,129,-1086,1194,16006,0,0,0,0,0,0,0,0,0,0,0
630,129,-1222,1304,16050,0,0,0,0,0,0,0,0,0,0,0
631,129,-1510,1276,16260,0,0,0,0,0,0,0,0,0,0,0
632,129,-1456,1276,16350,0,0,0,0,0,0,0,0,0,0,0
633,129,-1226,1278,16048,0,0,0,0,0,0,0,0,0,0,0
634,129,-1150,1164,16084,0,0,0,0,0,0,0,0,0,0,0
635,129,-1274,1180,16220,0,0,0,0,0,0,0,0,0,0,0
636,129,-1294,1242,16124,0,0,0,0,0,0,0,0,0,0,0
637,129,-1376,1326,16336,0,0,0,0,0,0,0,0,0,0,0
638,129,-1296,1270,16514,0,0,0,0,0,0,0,0,0,0,0
639,129,-1008,1072,15868,0,0,0,0,0,0,0,0,0,0,0
640,129,-1252,1154,16172,0,0,0,0,0,0,0,0,0,0,0
641,129,-1156,1312,15856,0,0,0,0,0,0,0,0,0,0,0
642,129,-1526,1290,16570,0,0,0,0,0,0,0,0,0,0,0
643,129,-1634,1360,16318,0,0,0,0,0,0,0,0,0,0,0
644,129,-1260,1176,16178,0,0,0,0,0,0,0,0,0,0,0
645,129,-1070,1188,15790,0,0,0,0,0,0,0,0,0,0,0
646,129,-1280,1184,16220,0,0,0,0,0,0,0,0,0,0,0
647,129,-1006,1210,15996,0,0,0,0,0,0,0,0,0,0,0
648,129,-1524,1330,16560,0,0,0,0,0,0,0,0,0,0,0
649,129,-1438,1266,16340,0,0,0,0,0,0,0,0,0,0,0
650,129,-1120,1142,15946,0,0,0,0,0,0,0,0,0,0,0
651,129,-1162,1166,15926,0,0,0,0,0,0,0,0,0,0,0
652,129,-1236,1264,16026,0,0,0,0,0,0,0,0,0,0,0
653,129,-1376,1280,16184,0,0,0,0,0,0,0,0,0,0,0
654,129,-1510,1424,16508,0,0,0,0,0,0,0,0,0,0,0
655,129,-1366,1360,16450,0,0,0,0,0,0,0,0,0,0,0
656,129,-1070,1188,15592,0,0,0,0,0,0,0,0,0,0,0
657,129,-1128,1266,16076,0,0,0,0,0,0,0,0,0,0,0
658,129,-1228,1192,15976,0,0,0,0,0,0,0,0,0,0,0
659,129,-1486,1300,16262,0,0,0,0,0,0,0,0,0,0,0
660,129,-1564,1322,16600,0,0,0,0,0,0,0,0,0,0,0
661,129,-1370,1322,16318,0,0,0,0,0,0,0,0,0,0,0
662,129,-1094,1174,15950,0,0,0,0,0,0,0,0,0,0,0
663,129,-1164,1264,15706,0,0,0,0,0,0,0,0,0,0,0
664,129,-1370,1182,16492,0,0,0,0,0,0,0,0,0,0,0
665,129,-1498,1276,16230,0,0,0,0,0,0,0,0,0,0,0
666,129,-1458,1332,16438,0,0,0,0,0,0,0,0,0,0,0
667,129,-1412,1082,16496,0,0,0,0,0,0,0,0,0,0,0
668,129,-974,1212,15364,0,0,0,0,0,0,0,0,0,0,0
669,129,-1106,1222,16004,0,0,0,0,0,0,0,0,0,0,0
670,129,-1512,1276,16312,0,0,0,0,0,0,0,0,0,0,0
671,129,-1610,1402,16574,0,0,0,0,0,0,0,0,0,0,0
672,129,-1260,1342,16330,0,0,0,0,0,0,0,0,0,0,0
673,129,-1102,1168,15618,0,0,0,0,0,0,0,0,0,0,0
674,129,-1114,1174,16092,0,0,0,0,0,0,0,0,0,0,0
675,129,-1254,1370,15940,0,0,0,0,0,0,0,0,0,0,0
676,129,-1334,1268,16070,0,0,0,0,0,0,0,0,0,0,0
677,129,-1462,1260,16486,0,0,0,0,0,0,0,0,0,0,0
678,129,-1370,1264,16090,0,0,0,0,0,0,0,0,0,0,0
679,129,-1182,1264,16212,0,0,0,0,0,0,0,0,0,0,0
680,129,-1158,1314,16176,0,0,0,0,0,0,0,0,0,0,0
681,129,-1226,1194,16032,0,0,0,0,0,0,0,0,0,0,0
682,129,-1530,1244,16070,0,0,0,0,0,0,0,0,0,0,0
683,129,-1514,1370,16198,0,0,0,0,0,0,0,0,0,0,0
684,129,-1582,1422,16448,0,0,0,0,0,0,0,0,0,0,0
685,129,-1188,1264,15760,0,0,0,0,0,0,0,0,0,0,0
686,129,-1336,1320,15674,0,0,0,0,0,0,0,0,0,0,0
687,129,-1496,1340,16180,0,0,0,0,0,0,0,0,0,0,0
688,129,-1330,1248,16324,0,0,0,0,0,0,0,0,0,0,0
689,129,-1330,1386,16300,0,0,0,0,0,0,0,0,0,0,0
690,129,-1286,1370,16164,0,0,0,0,0,0,0,0,0,0,0
691,129,-1248,1374,16166,0,0,0,0,0,0,0,0,0,0,0
692,129,-1378,1322,16090,0,0,0,0,0,0,0,0,0,0,0
693,129,-1266,1322,16116,0,0,0,0,0,0,0,0,0,0,0
694,129,-1392,1386,16340,0,0,0,0,0,0,0,0,0,0,0
695,129,-1332,1358,16084,0,0,0,0,0,0,0,0,0,0,0
696,129,-1078,1328,15984,0,0,0,0,0,0,0,0,0,0,0
697,129,-1274,1442,16266,0,0,0,0,0,0,0,0,0,0,0
698,129,-1206,1478,16238,0,0,0,0,0,0,0,0,0,0,0
699,129,-1342,1390,16042,0,0,0,0,0,0,0,0,0,0,0
700,129,-1308,1434,16084,0,0,0,0,0,0,0,0,0,0,0
701,129,-1170,1350,16212,0,0,0,0,0,0,0,0,0,0,0
702,129,-1198,1346,16254,0,0,0,0,0,0,0,0,0,0,0
703,129,-1298,1358,15968,0,0,0,0,0,0,0,0,0,0,0
704,129,-1268,1386,16120,0,0,0,0,0,0,0,0,0,0,0
705,129,-1438,1448,16274,0,0,0,0,0,0,0,0,0,0,0
706,129,-1392,1390,16424,0,0,0,0,0,0,0,0,0,0,0
707,129,-1230,1304,15728,0,0,0,0,0,0,0,0,0,0,0
708,129,-1300,1378,16068,0,0,0,0,0,0,0,0,0,0,0
709,129,-1252,1364,16066,0,0,0,0,0,0,0,0,0,0,0
710,129,-1336,1310,16344,0,0,0,0,0,0,0,0,0,0,0
711,129,-1234,1300,15944,0,0,0,0,0,0,0,0,0,0,0
712,129,-1488,1360,16210,0,0,0,0,0,0,0,0,0,0,0
713,129,-1398,1376,16130,0,0,0,0,0,0,0,0,0,0,0
714,129,-1334,1354,16086,0,0,0,0,0,0,0,0,0,0,0
715,129,-1414,1416,16028,0,0,0,0,0,0,0,0,0,0,0
716,129,-1210,1342,15558,0,0,0,0,0,0,0,0,0,0,0
717,129,-1246,1428,16232,0,0,0,0,0,0,0,0,0,0,0
718,129,-1336,1398,16284,0,0,0,0,0,0,0,0,0,0,0
719,129,-1308,1282,16128,0,0,0,0,0,0,0,0,0,0,0
720,129,-1234,1334,15744,0,0,0,0,0,0,0,0,0,0,0
721,129,-1572,1406,16060,0,0,0,0,0,0,0,0,0,0,0
722,129,-1574,1304,16438,0,0,0,0,0,0,0,0,0,0,0
723,129,-1416,1320,15962,0,0,0,0,0,0,0,0,0,0,0
724,129,-1128,1284,15898,0,0,0,0,0,0,0,0,0,0,0
725,129,-1148,1400,15990,0,0,0,0,0,0,0,0,0,0,0
726,129,-1396,1380,16146,0,0,0,0,0,0,0,0,0,0,0
727,129,-1370,1358,16100,0,0,0,0,0,0,0,0,0,0,0
728,129,-1426,1354,16512,0,0,0,0,0,0,0,0,0,0,0
729,129,-1340,1404,16192,0,0,0,0,0,0,0,0,0,0,0
730,129,-1222,1396,16138,0,0,0,0,0,0,0,0,0,0,0
731,129,-1200,1362,16142,0,0,0,0,0,0,0,0,0,0,0
732,129,-1194,1392,16062,0,0,0,0,0,0,0,0,0,0,0
733,129,-1440,1410,16150,0,0,0,0,0,0,0,0,0,0,0
734,129,-1442,1424,16264,0,0,0,0,0,0,0,0,0,0,0
735,129,-1450,1360,16354,0,0,0,0,0,0,0,0,0,0,0
736,129,-978,1326,15696,0,0,0,0,0,0,0,0,0,0,0
737,129,-1352,1492,16120,0,0,0,0,0,0,0,0,0,0,0
738,129,-1400,1458,16332,0,0,0,0,0,0,0,0,0,0,0
739,129,-1552,1426,16364,0,0,0,0,0,0,0,0,0,0,0
740,129,-1348,1236,16200,0,0,0,0,0,0,0,0,0,0,0
741,129,-1290,1362,16012,0,0,0,0,0,0,0,0,0,0,0
742,129,-1346,1398,16340,0,0,0,0,0,0,0,0,0,0,0
743,129,-1422,1440,16088,0,0,0,0,0,0,0,0,0,0,0
744,129,-1342,1426,16060,0,0,0,0,0,0,0,0,0,0,0
745,129,-1368,1396,16522,0,0,0,0,0,0,0,0,0,0,0
746,129,-1316,1484,16124,0,0,0,0,0,0,0,0,0,0,0
747,129,-1168,1498,15722,0,0,0,0,0,0,0,0,0,0,0
748,129,-1098,1438,16242,0,0,0,0,0,0,0,0,0,0,0
749,129,-1308,1460,16144,0,0,0,0,0,0,0,0,0,0,0
750,129,-1308,1424,16082,0,0,0,0,0,0,0,0,0,0,0
751,129,-1542,1496,16594,0,0,0,0,0,0,0,0,0,0,0
752,129,-1148,1410,15870,0,0,0,0,0,0,0,0,0,0,0
753,129,-1168,1434,15952,0,0,0,0,0,0,0,0,0,0,0
754,129,-1224,1374,16156,0,0,0,0,0,0,0,0,0,0,0
755,129,-1336,1368,16156,0,0,0,0,0,0,0,0,0,0,0
756,129,-1372,1530,16066,0,0,0,0,0,0,0,0,0,0,0
757,129,-1344,1340,16044,0,0,0,0,0,0,0,0,0,0,0
758,129,-1238,1352,16276,0,0,0,0,0,0,0,0,0,0,0
759,129,-1150,1340,16008,0,0,0,0,0,0,0,0,0,0,0
760,129,-1568,1534,16494,0,0,0,0,0,0,0,0,0,0,0
761,129,-1306,1330,16054,0,0,0,0,0,0,0,0,0,0,0
762,129,-1494,1466,16572,0,0,0,0,0,0,0,0,0,0,0
763,129,-1128,1302,16012,0,0,0,0,0,0,0,0,0,0,0
764,129,-1570,1478,16380,0,0,0,0,0,0,0,0,0,0,0
765,129,-1226,1286,15860,0,0,0,0,0,0,0,0,0,0,0
766,129,-1514,1398,16054,0,0,0,0,0,0,0,0,0,0,0
767,129,-1392,1280,16208,0,0,0,0,0,0,0,0,0,0,0
768,129,-1418,1338,16322,0,0,0,0,0,0,0,0,0,0,0
769,129,-1462,1526,16086,0,0,0,0,0,0,0,0,0,0,0
770,129,-1334,1436,15984,0,0,0,0,0,0,0,0,0,0,0
771,129,-1406,1342,16092,0,0,0,0,0,0,0,0,0,0,0
772,129,-1330,1314,15924,0,0,0,0,0,0,0,0,0,0,0
773,129,-1356,1336,16220,0,0,0,0,0,0,0,0,0,0,0
774,129,-1646,1464,16278,0,0,0,0,0,0,0,0,0,0,0
775,129,-1242,1410,15878,0,0,0,0,0,0,0,0,0,0,0
776,129,-1312,1320,15872,0,0,0,0,0,0,0,0,0,0,0
777,129,-1558,1300,16330,0,0,0,0,0,0,0,0,0,0,0
778,129,-1490,1478,16248,0,0,0,0,0,0,0,0,0,0,0
779,129,-1520,1468,16192,0,0,0,0,0,0,0,0,0,0,0
780,129,-1496,1402,16198,0,0,0,0,0,0,0,0,0,0,0
781,129,-1268,1398,15962,0,0,0,0,0,0,0,0,0,0,0
782,129,-1528,1420,16204,0,0,0,0,0,0,0,0,0,0,0
783,129,-1566,1434,16158,0,0,0,0,0,0,0,0,0,0,0
784,129,-1578,1380,16334,0,0,0,0,0,0,0,0,0,0,0
785,129,-1612,1386,16166,0,0,0,0,0,0,0,0,0,0,0
786,129,-1382,1444,15966,0,0,0,0,0,0,0,0,0,0,0
787,129,-1262,1446,15844,0,0,0,0,0,0,0,0,0,0,0
788,129,-1446,1488,16234,0,0,0,0,0,0,0,0,0,0,0
789,129,-1554,1490,15992,0,0,0,0,0,0,0,0,0,0,0
790,129,-1506,1472,16098,0,0,0,0,0,0,0,0,0,0,0
791,129,-1588,1380,16520,0,0,0,0,0,0,0,0,0,0,0
792,129,-1392,1432,15832,0,0,0,0,0,0,0,0,0,0,0
793,129,-1418,1456,16044,0,0,0,0,0,0,0,0,0,0,0
794,129,-1384,1536,16194,0,0,0,0,0,0,0,0,0,0,0
795,129,-1586,1430,16300,0,0,0,0,0,0,0,0,0,0,0
796,129,-1654,1380,16180,0,0,0,0,0,0,0,0,0,0,0
797,129,-1500,1426,16026,0,0,0,0,0,0,0,0,0,0,0
798,129,-1386,1474,16080,0,0,0,0,0,0,0,0,0,0,0
799,129,-1544,1386,15814,0,0,0,0,0,0,0,0,0,0,0
800,129,-1300,1512,16740,0,0,0,0,0,0,0,0,0,0,0
801,129,-1616,1590,16036,0,0,0,0,0,0,0,0,0,0,0
802,129,-1436,1368,15986,0,0,0,0,0,0,0,0,0,0,0
803,129,-1406,1418,16004,0,0,0,0,0,0,0,0,0,0,0
804,129,-1394,1442,15962,0,0,0,0,0,0,0,0,0,0,0
805,129,-1646,1536,16150,0,0,0,0,0,0,0,0,0,0,0
806,129,-1688,1554,16316,0,0,0,0,0,0,0,0,0,0,0
807,129,-1418,1416,15958,0,0,0,0,0,0,0,0,0,0,0
808,129,-1482,1454,16008,0,0,0,0,0,0,0,0,0,0,0
809,129,-1630,1502,15886,0,0,0,0,0,0,0,0,0,0,0
810,129,-1728,1552,16222,0,0,0,0,0,0,0,0,0,0,0
811,129,-1512,1550,16114,0,0,0,0,0,0,0,0,0,0,0
812,129,-1558,1552,16348,0,0,0,0,0,0,0,0,0,0,0
813,129,-1508,1370,15830,0,0,0,0,0,0,0,0,0,0,0
814,129,-1470,1400,15760,0,0,0,0,0,0,0,0,0,0,0
815,129,-1582,1610,16032,0,0,0,0,0,0,0,0,0,0,0
816,129,-1628,1620,16220,0,0,0,0,0,0,0,0,0,0,0
817,129,-1744,1424,16248,0,0,0,0,0,0,0,0,0,0,0
818,129,-1324,1382,15834,0,0,0,0,0,0,0,0,0,0,0
819,129,-1414,1352,16048,0,0,0,0,0,0,0,0,0,0,0
820,129,-1430,1454,16140,0,0,0,0,0,0,0,0,0,0,0
821,129,-1672,1586,16330,0,0,0,0,0,0,0,0,0,0,0
822,129,-1552,1444,16220,0,0,0,0,0,0,0,0,0,0,0
823,129,-1456,1416,16134,0,0,0,0,0,0,0,0,0,0,0
824,129,-1430,1420,15908,0,0,0,0,0,0,0,0,0,0,0
825,129,-1470,1558,16176,0,0,0,0,0,0,0,0,0,0,0
826,129,-1542,1512,16148,0,0,0,0,0,0,0,0,0,0,0
827,129,-1430,1392,16026,0,0,0,0,0,0,0,0,0,0,0
828,129,-1656,1500,16242,0,0,0,0,0,0,0,0,0,0,0
829,129,-1534,1524,15962,0,0,0,0,0,0,0,0,0,0,0
830,129,-1444,1612,16056,0,0,0,0,0,0,0,0,0,0,0
831,129,-1440,1558,15960,0,0,0,0,0,0,0,0,0,0,0
832,129,-1472,1510,16216,0,0,0,0,0,0,0,0,0,0,0
833,129,-1584,1492,16066,0,0,0,0,0,0,0,0,0,0,0
834,129,-1686,1466,16348,0,0,0,0,0,0,0,0,0,0,0
835,129,-1416,1514,15968,0,0,0,0,0,0,0,0,0,0,0
836,129,-1280,1560,16120,0,0,0,0,0,0,0,0,0,0,0
837,129,-1524,1548,15914,0,0,0,0,0,0,0,0,0,0,0
838,129,-1524,1638,16054,0,0,0,0,0,0,0,0,0,0,0
839,129,-1536,1634,15930,0,0,0,0,0,0,0,0,0,0,0
840,129,-1622,1478,16254,0,0,0,0,0,0,0,0,0,0,0
841,129,-1478,1478,16072,0,0,0,0,0,0,0,0,0,0,0
842,129,-1374,1540,15956,0,0,0,0,0,0,0,0,0,0,0
843,129,-1474,1558,16072,0,0,0,0,0,0,0,0,0,0,0
844,129,-1648,1612,16412,0,0,0,0,0,0,0,0,0,0,0
845,129,-1566,1526,15940,0,0,0,0,0,0,0,0,0,0,0
846,129,-1488,1528,15918,0,0,0,0,0,0,0,0,0,0,0
847,129,-1442,1462,16244,0,0,0,0,0,0,0,0,0,0,0
848,129,-1518,1464,15946,0,0,0,0,0,0,0,0,0,0,0
849,129,-1556,1568,16012,0,0,0,0,0,0,0,0,0,0,0
850,129,-1598,1534,16212,0,0,0,0,0,0,0,0,0,0,0
851,129,-1600,1598,16218,0,0,0,0,0,0,0,0,0,0,0
852,129,-1688,1562,16212,0,0,0,0,0,0,0,0,0,0,0
853,129,-1508,1538,15992,0,0,0,0,0,0,0,0,0,0,0
854,129,-1348,1500,15824,0,0,0,0,0,0,0,0,0,0,0
855,129,-1582,1562,16038,0,0,0,0,0,0,0,0,0,0,0
856,129,-1584,1594,16420,0,0,0,0,0,0,0,0,0,0,0
857,129,-1606,1516,16156,0,0,0,0,0,0,0,0,0,0,0
858,129,-1662,1506,16272,0,0,0,0,0,0,0,0,0,0,0
859,129,-1508,1602,15870,0,0,0,0,0,0,0,0,0,0,0
860,129,-1312,1530,15778,0,0,0,0,0,0,0,0,0,0,0
861,129,-1712,1600,16154,0,0,0,0,0,0,0,0,0,0,0
862,129,-1820,1498,16354,0,0,0,0,0,0,0,0,0,0,0
863,129,-1730,1500,16272,0,0,0,0,0,0,0,0,0,0,0
864,129,-1498,1642,15964,0,0,0,0,0,0,0,0,0,0,0
865,129,-1426,1546,15900,0,0,0,0,0,0,0,0,0,0,0
866,129,-1538,1586,16270,0,0,0,0,0,0,0,0,0,0,0
867,129,-1564,1548,16140,0,0,0,0,0,0,0,0,0,0,0
868,129,-1718,1642,16326,0,0,0,0,0,0,0,0,0,0,0
869,129,-1570,1636,16224,0,0,0,0,0,0,0,0,0,0,0
870,129,-1574,1610,15912,0,0,0,0,0,0,0,0,0,0,0
871,129,-1448,1516,15642,0,0,0,0,0,0,0,0,0,0,0
872,129,-1666,1574,16346,0,0,0,0,0,0,0,0,0,0,0
873,129,-1628,1646,16230,0,0,0,0,0,0,0,0,0,0,0
874,129,-1662,1626,16162,0,0,0,0,0,0,0,0,0,0,0
875,129,-1536,1630,16168,0,0,0,0,0,0,0,0,0,0,0
876,129,-1288,1576,15678,0,0,0,0,0,0,0,0,0,0,0
877,129,-1540,1566,16058,0,0,0,0,0,0,0,0,0,0,0
878,129,-1594,1590,16286,0,0,0,0,0,0,0,0,0,0,0
879,129,-1706,1750,16024,0,0,0,0,0,0,0,0,0,0,0
880,129,-1560,1696,16144,0,0,0,0,0,0,0,0,0,0,0
881,129,-1482,1742,15986,0,0,0,0,0,0,0,0,0,0,0
882,129,-1290,1514,15838,0,0,0,0,0,0,0,0,0,0,0
883,129,-1654,1624,16286,0,0,0,0,0,0,0,0,0,0,0
884,129,-1770,1746,16286,0,0,0,0,0,0,0,0,0,0,0
885,129,-1774,1684,16424,0,0,0,0,0,0,0,0,0,0,0
886,129,-1226,1510,15688,0,0,0,0,0,0,0,0,0,0,0
887,129,-1366,1642,15968,0,0,0,0,0,0,0,0,0,0,0
888,129,-1522,1742,16310,0,0,0,0,0,0,0,0,0,0,0
889,129,-1784,1686,16374,0,0,0,0,0,0,0,0,0,0,0
890,129,-1732,1644,15776,0,0,0,0,0,0,0,0,0,0,0
891,129,-1534,1544,16132,0,0,0,0,0,0,0,0,0,0,0
892,129,-1402,1634,15970,0,0,0,0,0,0,0,0,0,0,0
893,129,-1416,1720,16002,0,0,0,0,0,0,0,0,0,0,0
894,129,-1512,1692,16082,0,0,0,0,0,0,0,0,0,0,0
895,129,-1698,1758,16306,0,0,0,0,0,0,0,0,0,0,0
896,129,-1580,1560,16108,0,0,0,0,0,0,0,0,0,0,0
897,129,-1296,1510,15636,0,0,0,0,0,0,0,0,0,0,0
898,129,-1506,1660,16258,0,0,0,0,0,0,0,0,0,0,0
899,129,-1502,1702,16244,0,0,0,0,0,0,0,0,0,0,0
900,129,-1552,1652,16190,0,0,0,0,0,0,0,0,0,0,0
901,129,-1558,1682,16104,0,0,0,0,0,0,0,0,0,0,0
902,129,-1520,1732,15978,0,0,0,0,0,0,0,0,0,0,0
903,129,-1550,1684,16046,0,0,0,0,0,0,0,0,0,0,0
904,129,-1646,1752,16082,0,0,0,0,0,0,0,0,0,0,0
905,129,-1584,1806,16226,0,0,0,0,0,0,0,0,0,0,0
906,129,-1548,1662,16158,0,0,0,0,0,0,0,0,0,0,0
907,129,-1514,1716,16120,0,0,0,0,0,0,0,0,0,0,0
908,129,-1366,1588,16238,0,0,0,0,0,0,0,0,0,0,0
909,129,-1536,1678,16196,0,0,0,0,0,0,0,0,0,0,0
910,129,-1400,1702,15968,0,0,0,0,0,0,0,0,0,0,0
911,129,-1540,1660,15880,0,0,0,0,0,0,0,0,0,0,0
912,129,-1736,1570,16344,0,0,0,0,0,0,0,0,0,0,0
913,129,-1694,1688,16356,0,0,0,0,0,0,0,0,0,0,0
914,129,-1416,1660,15888,0,0,0,0,0,0,0,0,0,0,0
915,129,-1530,1648,16074,0,0,0,0,0,0,0,0,0,0,0
916,129,-1316,1616,15890,0,0,0,0,0,0,0,0,0,0,0
917,129,-1676,1704,16258,0,0,0,0,0,0,0,0,0,0,0
918,129,-1674,1756,16338,0,0,0,0,0,0,0,0,0,0,0
919,129,-1476,1672,16092,0,0,0,0,0,0,0,0,0,0,0
920,129,-1172,1498,15768,0,0,0,0,0,0,0,0,0,0,0
921,129,-1282,1704,15876,0,0,0,0,0,0,0,0,0,0,0
922,129,-1614,1834,16398,0,0,0,0,0,0,0,0,0,0,0
923,129,-1680,1770,16380,0,0,0,0,0,0,0,0,0,0,0
924,129,-1620,1670,16326,0,0,0,0,0,0,0,0,0,0,0
925,129,-1548,1502,15944,0,0,0,0,0,0,0,0,0,0,0
926,129,-1332,1520,15706,0,0,0,0,0,0,0,0,0,0,0
927,129,-1488,1830,16102,0,0,0,0,0,0,0,0,0,0,0
928,129,-1670,1758,16312,0,0,0,0,0,0,0,0,0,0,0
929,129,-1616,1638,16346,0,0,0,0,0,0,0,0,0,0,0
930,129,-1554,1708,16304,0,0,0,0,0,0,0,0,0,0,0
931,129,-1408,1646,15726,0,0,0,0,0,0,0,0,0,0,0
932,129,-1564,1766,15942,0,0,0,0,0,0,0,0,0,0,0
933,129,-1446,1730,16224,0,0,0,0,0,0,0,0,0,0,0
934,129,-1626,1792,16206,0,0,0,0,0,0,0,0,0,0,0
935,129,-1634,1634,16270,0,0,0,0,0,0,0,0,0,0,0
936,129,-1656,1694,16020,0,0,0,0,0,0,0,0,0,0,0
