ProgrNum,PacketType,AccX,AccY,AccZ,GyrX,GyrY,GyrZ,MagX,MagY,MagZ,Q0,Q1,Q2,Q3,Vbat
0,129,484,16452,378,0,0,0,0,0,0,0,0,0,0,0
1,129,468,16470,236,0,0,0,0,0,0,0,0,0,0,0
2,129,418,16406,412,0,0,0,0,0,0,0,0,0,0,0
3,129,474,16482,312,0,0,0,0,0,0,0,0,0,0,0
4,129,444,16386,322,0,0,0,0,0,0,0,0,0,0,0
5,129,448,16550,380,0,0,0,0,0,0,0,0,0,0,0
6,129,490,16490,330,0,0,0,0,0,0,0,0,0,0,0
7,129,528,16392,280,0,0,0,0,0,0,0,0,0,0,0
8,129,506,16522,404,0,0,0,0,0,0,0,0,0,0,0
9,129,456,16454,282,0,0,0,0,0,0,0,0,0,0,0
10,129,472,16436,402,0,0,0,0,0,0,0,0,0,0,0
11,129,408,16450,232,0,0,0,0,0,0,0,0,0,0,0
12,129,504,16504,272,0,0,0,0,0,0,0,0,0,0,0
13,129,440,16426,210,0,0,0,0,0,0,0,0,0,0,0
14,129,514,16466,228,0,0,0,0,0,0,0,0,0,0,0
15,129,476,16456,258,0,0,0,0,0,0,0,0,0,0,0
16,129,508,16418,294,0,0,0,0,0,0,0,0,0,0,0
17,129,486,16450,202,0,0,0,0,0,0,0,0,0,0,0
18,129,434,16462,282,0,0,0,0,0,0,0,0,0,0,0
19,129,408,16464,288,0,0,0,0,0,0,0,0,0,0,0
20,129,454,16392,316,0,0,0,0,0,0,0,0,0,0,0
21,129,438,16452,144,0,0,0,0,0,0,0,0,0,0,0
22,129,448,16474,226,0,0,0,0,0,0,0,0,0,0,0
23,129,544,16458,150,0,0,0,0,0,0,0,0,0,0,0
24,129,386,16418,298,0,0,0,0,0,0,0,0,0,0,0
25,129,482,16532,202,0,0,0,0,0,0,0,0,0,0,0
26,129,448,16468,292,0,0,0,0,0,0,0,0,0,0,0
27,129,486,16438,250,0,0,0,0,0,0,0,0,0,0,0
28,129,482,16432,310,0,0,0,0,0,0,0,0,0,0,0
29,129,396,16578,320,0,0,0,0,0,0,0,0,0,0,0
30,129,470,16374,108,0,0,0,0,0,0,0,0,0,0,0
31,129,444,16488,286,0,0,0,0,0,0,0,0,0,0,0
32,129,478,16556,292,0,0,0,0,0,0,0,0,0,0,0
33,129,540,16402,194,0,0,0,0,0,0,0,0,0,0,0
34,129,416,16536,322,0,0,0,0,0,0,0,0,0,0,0
35,129,464,16446,188,0,0,0,0,0,0,0,0,0,0,0
36,129,462,16482,288,0,0,0,0,0,0,0,0,0,0,0
37,129,478,16440,232,0,0,0,0,0,0,0,0,0,0,0
38,129,436,16460,224,0,0,0,0,0,0,0,0,0,0,0
39,129,430,16434,94,0,0,0,0,0,0,0,0,0,0,0
40,129,442,16360,380,0,0,0,0,0,0,0,0,0,0,0
41,129,442,16448,134,0,0,0,0,0,0,0,0,0,0,0
42,129,418,16388,272,0,0,0,0,0,0,0,0,0,0,0
43,129,440,16392,254,0,0,0,0,0,0,0,0,0,0,0
44,129,484,16492,238,0,0,0,0,0,0,0,0,0,0,0
45,129,470,16456,268,0,0,0,0,0,0,0,0,0,0,0
46,129,472,16486,248,0,0,0,0,0,0,0,0,0,0,0
47,129,460,16514,266,0,0,0,0,0,0,0,0,0,0,0
48,129,426,16466,236,0,0,0,0,0,0,0,0,0,0,0
49,129,466,16440,194,0,0,0,0,0,0,0,0,0,0,0
50,129,460,16452,312,0,0,0,0,0,0,0,0,0,0,0
51,129,440,16514,254,0,0,0,0,0,0,0,0,0,0,0
52,129,454,16368,302,0,0,0,0,0,0,0,0,0,0,0
53,129,506,16570,234,0,0,0,0,0,0,0,0,0,0,0
54,129,446,16556,198,0,0,0,0,0,0,0,0,0,0,0
55,129,488,16454,308,0,0,0,0,0,0,0,0,0,0,0
56,129,444,16538,180,0,0,0,0,0,0,0,0,0,0,0
57,129,454,16376,228,0,0,0,0,0,0,0,0,0,0,0
58,129,410,16408,310,0,0,0,0,0,0,0,0,0,0,0
59,129,426,16414,118,0,0,0,0,0,0,0,0,0,0,0
60,129,480,16496,182,0,0,0,0,0,0,0,0,0,0,0
61,129,546,16494,92,0,0,0,0,0,0,0,0,0,0,0
62,129,452,16524,178,0,0,0,0,0,0,0,0,0,0,0
63,129,454,16462,216,0,0,0,0,0,0,0,0,0,0,0
64,129,416,16462,154,0,0,0,0,0,0,0,0,0,0,0
65,129,454,16438,220,0,0,0,0,0,0,0,0,0,0,0
66,129,502,16440,188,0,0,0,0,0,0,0,0,0,0,0
67,129,492,16436,166,0,0,0,0,0,0,0,0,0,0,0
68,129,452,16452,60,0,0,0,0,0,0,0,0,0,0,0
69,129,430,16412,164,0,0,0,0,0,0,0,0,0,0,0
70,129,480,16462,262,0,0,0,0,0,0,0,0,0,0,0
71,129,474,16386,162,0,0,0,0,0,0,0,0,0,0,0
72,129,482,16448,174,0,0,0,0,0,0,0,0,0,0,0
73,129,512,16494,174,0,0,0,0,0,0,0,0,0,0,0
74,129,456,16486,204,0,0,0,0,0,0,0,0,0,0,0
75,129,394,16492,166,0,0,0,0,0,0,0,0,0,0,0
76,129,376,16500,246,0,0,0,0,0,0,0,0,0,0,0
77,129,500,16502,158,0,0,0,0,0,0,0,0,0,0,0
78,129,396,16498,150,0,0,0,0,0,0,0,0,0,0,0
79,129,452,16448,110,0,0,0,0,0,0,0,0,0,0,0
80,129,468,16460,290,0,0,0,0,0,0,0,0,0,0,0
81,129,414,16542,150,0,0,0,0,0,0,0,0,0,0,0
82,129,422,16536,96,0,0,0,0,0,0,0,0,0,0,0
83,129,440,16496,66,0,0,0,0,0,0,0,0,0,0,0
84,129,512,16518,88,0,0,0,0,0,0,0,0,0,0,0
85,129,450,16494,16,0,0,0,0,0,0,0,0,0,0,0
86,129,518,16574,120,0,0,0,0,0,0,0,0,0,0,0
87,129,474,16408,138,0,0,0,0,0,0,0,0,0,0,0
88,129,398,16428,84,0,0,0,0,0,0,0,0,0,0,0
89,129,468,16474,96,0,0,0,0,0,0,0,0,0,0,0
90,129,474,16508,110,0,0,0,0,0,0,0,0,0,0,0
91,129,522,16516,122,0,0,0,0,0,0,0,0,0,0,0
92,129,454,16412,54,0,0,0,0,0,0,0,0,0,0,0
93,129,436,16506,18,0,0,0,0,0,0,0,0,0,0,0
94,129,546,16542,126,0,0,0,0,0,0,0,0,0,0,0
95,129,482,16504,130,0,0,0,0,0,0,0,0,0,0,0
96,129,548,16480,222,0,0,0,0,0,0,0,0,0,0,0
97,129,486,16432,112,0,0,0,0,0,0,0,0,0,0,0
98,129,470,16486,288,0,0,0,0,0,0,0,0,0,0,0
99,129,532,16488,62,0,0,0,0,0,0,0,0,0,0,0
100,129,406,16438,164,0,0,0,0,0,0,0,0,0,0,0
101,129,516,16456,126,0,0,0,0,0,0,0,0,0,0,0
102,129,468,16396,252,0,0,0,0,0,0,0,0,0,0,0
103,129,480,16474,152,0,0,0,0,0,0,0,0,0,0,0
104,129,410,16488,168,0,0,0,0,0,0,0,0,0,0,0
105,129,506,16458,66,0,0,0,0,0,0,0,0,0,0,0
106,129,500,16522,152,0,0,0,0,0,0,0,0,0,0,0
107,129,498,16466,180,0,0,0,0,0,0,0,0,0,0,0
108,129,496,16500,266,0,0,0,0,0,0,0,0,0,0,0
109,129,406,16452,26,0,0,0,0,0,0,0,0,0,0,0
110,129,572,16606,98,0,0,0,0,0,0,0,0,0,0,0
111,129,558,16580,64,0,0,0,0,0,0,0,0,0,0,0
112,129,536,16482,130,0,0,0,0,0,0,0,0,0,0,0
113,129,476,16392,90,0,0,0,0,0,0,0,0,0,0,0
114,129,482,16424,264,0,0,0,0,0,0,0,0,0,0,0
115,129,466,16482,84,0,0,0,0,0,0,0,0,0,0,0
116,129,516,16530,162,0,0,0,0,0,0,0,0,0,0,0
117,129,520,16394,180,0,0,0,0,0,0,0,0,0,0,0
118,129,500,16390,64,0,0,0,0,0,0,0,0,0,0,0
119,129,462,16402,110,0,0,0,0,0,0,0,0,0,0,0
120,129,556,16470,202,0,0,0,0,0,0,0,0,0,0,0
121,129,500,16446,2,0,0,0,0,0,0,0,0,0,0,0
122,129,554,16484,132,0,0,0,0,0,0,0,0,0,0,0
123,129,548,16432,84,0,0,0,0,0,0,0,0,0,0,0
124,129,516,16438,222,0,0,0,0,0,0,0,0,0,0,0
125,129,538,16498,-10,0,0,0,0,0,0,0,0,0,0,0
126,129,542,16490,86,0,0,0,0,0,0,0,0,0,0,0
127,129,556,16478,18,0,0,0,0,0,0,0,0,0,0,0
128,129,598,16504,-54,0,0,0,0,0,0,0,0,0,0,0
129,129,564,16508,-74,0,0,0,0,0,0,0,0,0,0,0
130,129,524,16520,136,0,0,0,0,0,0,0,0,0,0,0
131,129,612,16534,-30,0,0,0,0,0,0,0,0,0,0,0
132,129,480,16422,-44,0,0,0,0,0,0,0,0,0,0,0
133,129,500,16432,96,0,0,0,0,0,0,0,0,0,0,0
134,129,564,16502,116,0,0,0,0,0,0,0,0,0,0,0
135,129,562,16410,12,0,0,0,0,0,0,0,0,0,0,0
136,129,560,16506,64,0,0,0,0,0,0,0,0,0,0,0
137,129,546,16372,66,0,0,0,0,0,0,0,0,0,0,0
138,129,480,16494,72,0,0,0,0,0,0,0,0,0,0,0
139,129,578,16506,6,0,0,0,0,0,0,0,0,0,0,0
140,129,476,16442,174,0,0,0,0,0,0,0,0,0,0,0
141,129,510,16440,42,0,0,0,0,0,0,0,0,0,0,0
142,129,536,16408,42,0,0,0,0,0,0,0,0,0,0,0
143,129,630,16444,10,0,0,0,0,0,0,0,0,0,0,0
144,129,608,16508,0,0,0,0,0,0,0,0,0,0,0,0
145,129,1008,16812,-270,0,0,0,0,0,0,0,0,0,0,0
146,129,718,16484,20,0,0,0,0,0,0,0,0,0,0,0
147,129,692,16540,64,0,0,0,0,0,0,0,0,0,0,0
148,129,660,16508,4,0,0,0,0,0,0,0,0,0,0,0
149,129,670,16538,152,0,0,0,0,0,0,0,0,0,0,0
150,129,606,16414,116,0,0,0,0,0,0,0,0,0,0,0
151,129,558,16514,58,0,0,0,0,0,0,0,0,0,0,0
152,129,552,16386,130,0,0,0,0,0,0,0,0,0,0,0
153,129,584,16406,40,0,0,0,0,0,0,0,0,0,0,0
154,129,564,16532,40,0,0,0,0,0,0,0,0,0,0,0
155,129,604,16500,22,0,0,0,0,0,0,0,0,0,0,0
156,129,648,16464,226,0,0,0,0,0,0,0,0,0,0,0
157,129,536,16486,90,0,0,0,0,0,0,0,0,0,0,0
158,129,552,16372,156,0,0,0,0,0,0,0,0,0,0,0
159,129,546,16514,102,0,0,0,0,0,0,0,0,0,0,0
160,129,498,16480,272,0,0,0,0,0,0,0,0,0,0,0
161,129,620,16514,-20,0,0,0,0,0,0,0,0,0,0,0
162,129,588,16454,186,0,0,0,0,0,0,0,0,0,0,0
163,129,570,16386,78,0,0,0,0,0,0,0,0,0,0,0
164,129,560,16450,174,0,0,0,0,0,0,0,0,0,0,0
165,129,562,16452,102,0,0,0,0,0,0,0,0,0,0,0
166,129,534,16460,142,0,0,0,0,0,0,0,0,0,0,0
167,129,614,16462,-32,0,0,0,0,0,0,0,0,0,0,0
168,129,610,16496,178,0,0,0,0,0,0,0,0,0,0,0
169,129,606,16472,96,0,0,0,0,0,0,0,0,0,0,0
170,129,568,16456,144,0,0,0,0,0,0,0,0,0,0,0
171,129,550,16564,144,0,0,0,0,0,0,0,0,0,0,0
172,129,592,16436,240,0,0,0,0,0,0,0,0,0,0,0
173,129,626,16474,92,0,0,0,0,0,0,0,0,0,0,0
174,129,600,16482,72,0,0,0,0,0,0,0,0,0,0,0
175,129,598,16488,44,0,0,0,0,0,0,0,0,0,0,0
176,129,610,16424,172,0,0,0,0,0,0,0,0,0,0,0
177,129,618,16508,40,0,0,0,0,0,0,0,0,0,0,0
178,129,626,16472,114,0,0,0,0,0,0,0,0,0,0,0
179,129,588,16446,32,0,0,0,0,0,0,0,0,0,0,0
180,129,632,16408,194,0,0,0,0,0,0,0,0,0,0,0
181,129,638,16532,244,0,0,0,0,0,0,0,0,0,0,0
182,129,584,16536,188,0,0,0,0,0,0,0,0,0,0,0
183,129,628,16460,50,0,0,0,0,0,0,0,0,0,0,0
184,129,500,16482,168,0,0,0,0,0,0,0,0,0,0,0
185,129,558,16546,148,0,0,0,0,0,0,0,0,0,0,0
186,129,362,16464,494,0,0,0,0,0,0,0,0,0,0,0
187,129,644,16424,-486,0,0,0,0,0,0,0,0,0,0,0
188,129,538,16516,578,0,0,0,0,0,0,0,0,0,0,0
189,129,522,16452,398,0,0,0,0,0,0,0,0,0,0,0
190,129,564,16444,100,0,0,0,0,0,0,0,0,0,0,0
191,129,336,16528,-1388,0,0,0,0,0,0,0,0,0,0,0
192,129,846,16530,-430,0,0,0,0,0,0,0,0,0,0,0
193,129,572,16432,516,0,0,0,0,0,0,0,0,0,0,0
194,129,622,16498,1006,0,0,0,0,0,0,0,0,0,0,0
195,129,588,16452,638,0,0,0,0,0,0,0,0,0,0,0
196,129,714,16432,688,0,0,0,0,0,0,0,0,0,0,0
197,129,626,16826,904,0,0,0,0,0,0,0,0,0,0,0
198,129,742,16588,1380,0,0,0,0,0,0,0,0,0,0,0
199,129,924,16712,1488,0,0,0,0,0,0,0,0,0,0,0
200,129,856,17112,1512,0,0,0,0,0,0,0,0,0,0,0
201,129,1244,16866,2106,0,0,0,0,0,0,0,0,0,0,0
202,129,988,16660,1764,0,0,0,0,0,0,0,0,0,0,0
203,129,576,16514,1700,0,0,0,0,0,0,0,0,0,0,0
204,129,668,16372,1902,0,0,0,0,0,0,0,0,0,0,0
205,129,568,16044,2136,0,0,0,0,0,0,0,0,0,0,0
206,129,384,15726,2448,0,0,0,0,0,0,0,0,0,0,0
207,129,354,15978,2456,0,0,0,0,0,0,0,0,0,0,0
208,129,1130,16076,2906,0,0,0,0,0,0,0,0,0,0,0
209,129,1092,15822,3054,0,0,0,0,0,0,0,0,0,0,0
210,129,426,15848,3390,0,0,0,0,0,0,0,0,0,0,0
211,129,446,15608,4742,0,0,0,0,0,0,0,0,0,0,0
212,129,1220,16098,4886,0,0,0,0,0,0,0,0,0,0,0
213,129,1108,16592,5316,0,0,0,0,0,0,0,0,0,0,0
214,129,1484,16466,5606,0,0,0,0,0,0,0,0,0,0,0
215,129,760,16206,5050,0,0,0,0,0,0,0,0,0,0,0
216,129,846,15812,5672,0,0,0,0,0,0,0,0,0,0,0
217,129,610,15316,6106,0,0,0,0,0,0,0,0,0,0,0
218,129,1054,14862,6390,0,0,0,0,0,0,0,0,0,0,0
219,129,836,14754,6784,0,0,0,0,0,0,0,0,0,0,0
220,129,744,14386,7158,0,0,0,0,0,0,0,0,0,0,0
221,129,720,14404,7250,0,0,0,0,0,0,0,0,0,0,0
222,129,1364,14366,7914,0,0,0,0,0,0,0,0,0,0,0
223,129,1300,14492,8616,0,0,0,0,0,0,0,0,0,0,0
224,129,1300,14216,9026,0,0,0,0,0,0,0,0,0,0,0
225,129,1020,13842,9396,0,0,0,0,0,0,0,0,0,0,0
226,129,1444,13600,9890,0,0,0,0,0,0,0,0,0,0,0
227,129,1450,13246,10422,0,0,0,0,0,0,0,0,0,0,0
228,129,1094,12862,10772,0,0,0,0,0,0,0,0,0,0,0
229,129,960,12654,11250,0,0,0,0,0,0,0,0,0,0,0
230,129,940,12186,11894,0,0,0,0,0,0,0,0,0,0,0
231,129,1248,11554,12110,0,0,0,0,0,0,0,0,0,0,0
232,129,1712,11176,11668,0,0,0,0,0,0,0,0,0,0,0
233,129,970,10658,13698,0,0,0,0,0,0,0,0,0,0,0
234,129,1250,9878,12830,0,0,0,0,0,0,0,0,0,0,0
235,129,678,9322,13118,0,0,0,0,0,0,0,0,0,0,0
236,129,706,8726,13628,0,0,0,0,0,0,0,0,0,0,0
237,129,1084,8296,14210,0,0,0,0,0,0,0,0,0,0,0
238,129,896,7960,14726,0,0,0,0,0,0,0,0,0,0,0
239,129,1146,7066,14368,0,0,0,0,0,0,0,0,0,0,0
240,129,852,6736,15454,0,0,0,0,0,0,0,0,0,0,0
241,129,890,6206,14470,0,0,0,0,0,0,0,0,0,0,0
242,129,830,5694,16094,0,0,0,0,0,0,0,0,0,0,0
243,129,1068,5150,15516,0,0,0,0,0,0,0,0,0,0,0
244,129,72,3920,15088,0,0,0,0,0,0,0,0,0,0,0
245,129,428,3436,15254,0,0,0,0,0,0,0,0,0,0,0
246,129,594,2886,14990,0,0,0,0,0,0,0,0,0,0,0
247,129,514,3256,15258,0,0,0,0,0,0,0,0,0,0,0
248,129,1048,2990,15784,0,0,0,0,0,0,0,0,0,0,0
249,129,712,3134,15678,0,0,0,0,0,0,0,0,0,0,0
250,129,944,2612,16374,0,0,0,0,0,0,0,0,0,0,0
251,129,922,2122,17162,0,0,0,0,0,0,0,0,0,0,0
252,129,374,1738,16140,0,0,0,0,0,0,0,0,0,0,0
253,129,274,954,15654,0,0,0,0,0,0,0,0,0,0,0
254,129,434,148,16142,0,0,0,0,0,0,0,0,0,0,0
255,129,542,388,15962,0,0,0,0,0,0,0,0,0,0,0
256,129,662,-354,15920,0,0,0,0,0,0,0,0,0,0,0
257,129,952,-742,15582,0,0,0,0,0,0,0,0,0,0,0
258,129,462,-934,15800,0,0,0,0,0,0,0,0,0,0,0
259,129,352,80,15870,0,0,0,0,0,0,0,0,0,0,0
260,129,288,-494,16602,0,0,0,0,0,0,0,0,0,0,0
261,129,596,-760,17226,0,0,0,0,0,0,0,0,0,0,0
262,129,798,-1098,16822,0,0,0,0,0,0,0,0,0,0,0
263,129,564,-1540,16566,0,0,0,0,0,0,0,0,0,0,0
264,129,720,-1874,15548,0,0,0,0,0,0,0,0,0,0,0
265,129,594,-2490,15298,0,0,0,0,0,0,0,0,0,0,0
266,129,854,-2566,14348,0,0,0,0,0,0,0,0,0,0,0
267,129,718,-2530,15516,0,0,0,0,0,0,0,0,0,0,0
268,129,416,-2428,15808,0,0,0,0,0,0,0,0,0,0,0
269,129,516,-2422,15828,0,0,0,0,0,0,0,0,0,0,0
270,129,660,-2386,16266,0,0,0,0,0,0,0,0,0,0,0
271,129,576,-2402,16046,0,0,0,0,0,0,0,0,0,0,0
272,129,336,-2434,16400,0,0,0,0,0,0,0,0,0,0,0
273,129,348,-2482,16282,0,0,0,0,0,0,0,0,0,0,0
274,129,296,-2266,16216,0,0,0,0,0,0,0,0,0,0,0
275,129,454,-2270,16332,0,0,0,0,0,0,0,0,0,0,0
276,129,110,-2098,16208,0,0,0,0,0,0,0,0,0,0,0
277,129,300,-1882,16150,0,0,0,0,0,0,0,0,0,0,0
278,129,410,-1964,16458,0,0,0,0,0,0,0,0,0,0,0
279,129,420,-1930,16320,0,0,0,0,0,0,0,0,0,0,0
280,129,436,-1944,16024,0,0,0,0,0,0,0,0,0,0,0
281,129,348,-1974,15930,0,0,0,0,0,0,0,0,0,0,0
282,129,150,-1982,16294,0,0,0,0,0,0,0,0,0,0,0
283,129,350,-1856,16102,0,0,0,0,0,0,0,0,0,0,0
284,129,462,-1942,16510,0,0,0,0,0,0,0,0,0,0,0
285,129,308,-1776,16120,0,0,0,0,0,0,0,0,0,0,0
286,129,370,-1708,16414,0,0,0,0,0,0,0,0,0,0,0
287,129,326,-1696,16722,0,0,0,0,0,0,0,0,0,0,0
288,129,364,-1718,16444,0,0,0,0,0,0,0,0,0,0,0
289,129,490,-1756,16038,0,0,0,0,0,0,0,0,0,0,0
290,129,422,-1710,16186,0,0,0,0,0,0,0,0,0,0,0
291,129,296,-1622,16166,0,0,0,0,0,0,0,0,0,0,0
292,129,420,-1774,16332,0,0,0,0,0,0,0,0,0,0,0
293,129,434,-1702,16172,0,0,0,0,0,0,0,0,0,0,0
294,129,446,-1760,16184,0,0,0,0,0,0,0,0,0,0,0
295,129,38,-1536,16394,0,0,0,0,0,0,0,0,0,0,0
296,129,446,-1610,16118,0,0,0,0,0,0,0,0,0,0,0
297,129,392,-1712,16224,0,0,0,0,0,0,0,0,0,0,0
298,129,302,-1752,16326,0,0,0,0,0,0,0,0,0,0,0
299,129,278,-1484,16260,0,0,0,0,0,0,0,0,0,0,0
300,129,380,-1542,16158,0,0,0,0,0,0,0,0,0,0,0
301,129,98,-1480,16348,0,0,0,0,0,0,0,0,0,0,0
302,129,278,-1548,16476,0,0,0,0,0,0,0,0,0,0,0
303,129,322,-1670,16268,0,0,0,0,0,0,0,0,0,0,0
304,129,320,-1774,16284,0,0,0,0,0,0,0,0,0,0,0
305,129,276,-1666,16096,0,0,0,0,0,0,0,0,0,0,0
306,129,278,-1524,16156,0,0,0,0,0,0,0,0,0,0,0
307,129,424,-1500,16298,0,0,0,0,0,0,0,0,0,0,0
308,129,354,-1470,16474,0,0,0,0,0,0,0,0,0,0,0
309,129,268,-1654,16346,0,0,0,0,0,0,0,0,0,0,0
310,129,308,-1684,16120,0,0,0,0,0,0,0,0,0,0,0
311,129,388,-1812,16298,0,0,0,0,0,0,0,0,0,0,0
312,129,442,-1752,16352,0,0,0,0,0,0,0,0,0,0,0
313,129,314,-1600,16274,0,0,0,0,0,0,0,0,0,0,0
314,129,436,-1714,16248,0,0,0,0,0,0,0,0,0,0,0
315,129,428,-1596,16352,0,0,0,0,0,0,0,0,0,0,0
316,129,392,-1626,16614,0,0,0,0,0,0,0,0,0,0,0
317,129,406,-1734,16176,0,0,0,0,0,0,0,0,0,0,0
318,129,588,-1748,16190,0,0,0,0,0,0,0,0,0,0,0
319,129,414,-1776,16194,0,0,0,0,0,0,0,0,0,0,0
320,129,406,-1638,16174,0,0,0,0,0,0,0,0,0,0,0
321,129,440,-1724,16206,0,0,0,0,0,0,0,0,0,0,0
322,129,550,-1854,16374,0,0,0,0,0,0,0,0,0,0,0
323,129,454,-1726,16326,0,0,0,0,0,0,0,0,0,0,0
324,129,472,-1708,16336,0,0,0,0,0,0,0,0,0,0,0
325,129,430,-1692,15990,0,0,0,0,0,0,0,0,0,0,0
326,129,400,-1720,16072,0,0,0,0,0,0,0,0,0,0,0
327,129,400,-1556,15912,0,0,0,0,0,0,0,0,0,0,0
328,129,376,-1288,15794,0,0,0,0,0,0,0,0,0,0,0
329,129,466,-1358,15952,0,0,0,0,0,0,0,0,0,0,0
330,129,326,-930,15186,0,0,0,0,0,0,0,0,0,0,0
331,129,184,-664,15672,0,0,0,0,0,0,0,0,0,0,0
332,129,92,-218,16844,0,0,0,0,0,0,0,0,0,0,0
333,129,384,-30,17526,0,0,0,0,0,0,0,0,0,0,0
334,129,504,-86,16590,0,0,0,0,0,0,0,0,0,0,0
335,129,296,84,16630,0,0,0,0,0,0,0,0,0,0,0
336,129,386,58,16870,0,0,0,0,0,0,0,0,0,0,0
337,129,220,192,16666,0,0,0,0,0,0,0,0,0,0,0
338,129,324,278,16700,0,0,0,0,0,0,0,0,0,0,0
339,129,314,350,16504,0,0,0,0,0,0,0,0,0,0,0
340,129,300,274,16576,0,0,0,0,0,0,0,0,0,0,0
341,129,334,224,16478,0,0,0,0,0,0,0,0,0,0,0
342,129,542,206,16672,0,0,0,0,0,0,0,0,0,0,0
343,129,274,246,15854,0,0,0,0,0,0,0,0,0,0,0
344,129,416,350,15980,0,0,0,0,0,0,0,0,0,0,0
345,129,398,478,16074,0,0,0,0,0,0,0,0,0,0,0
346,129,156,672,15908,0,0,0,0,0,0,0,0,0,0,0
347,129,586,620,15764,0,0,0,0,0,0,0,0,0,0,0
348,129,336,710,15518,0,0,0,0,0,0,0,0,0,0,0
349,129,-64,958,15416,0,0,0,0,0,0,0,0,0,0,0
350,129,386,1276,17376,0,0,0,0,0,0,0,0,0,0,0
351,129,444,1484,16548,0,0,0,0,0,0,0,0,0,0,0
352,129,206,1892,16596,0,0,0,0,0,0,0,0,0,0,0
353,129,150,1924,16552,0,0,0,0,0,0,0,0,0,0,0
354,129,236,2160,16840,0,0,0,0,0,0,0,0,0,0,0
355,129,388,2164,16830,0,0,0,0,0,0,0,0,0,0,0
356,129,330,2266,16300,0,0,0,0,0,0,0,0,0,0,0
357,129,322,2240,16442,0,0,0,0,0,0,0,0,0,0,0
358,129,324,2266,16670,0,0,0,0,0,0,0,0,0,0,0
359,129,276,2208,16214,0,0,0,0,0,0,0,0,0,0,0
360,129,242,2334,16158,0,0,0,0,0,0,0,0,0,0,0
361,129,214,2374,15596,0,0,0,0,0,0,0,0,0,0,0
362,129,468,2314,16026,0,0,0,0,0,0,0,0,0,0,0
363,129,414,2314,16252,0,0,0,0,0,0,0,0,0,0,0
364,129,138,2432,15988,0,0,0,0,0,0,0,0,0,0,0
365,129,210,2510,15894,0,0,0,0,0,0,0,0,0,0,0
366,129,300,2522,16214,0,0,0,0,0,0,0,0,0,0,0
367,129,418,2450,16446,0,0,0,0,0,0,0,0,0,0,0
368,129,406,2302,16592,0,0,0,0,0,0,0,0,0,0,0
369,129,264,2482,16296,0,0,0,0,0,0,0,0,0,0,0
370,129,152,2544,16048,0,0,0,0,0,0,0,0,0,0,0
371,129,316,2412,16386,0,0,0,0,0,0,0,0,0,0,0
372,129,332,2458,16328,0,0,0,0,0,0,0,0,0,0,0
373,129,442,2640,16388,0,0,0,0,0,0,0,0,0,0,0
374,129,246,2732,16332,0,0,0,0,0,0,0,0,0,0,0
375,129,264,2644,16176,0,0,0,0,0,0,0,0,0,0,0
376,129,326,2416,16008,0,0,0,0,0,0,0,0,0,0,0
377,129,358,2470,16236,0,0,0,0,0,0,0,0,0,0,0
378,129,286,2428,15944,0,0,0,0,0,0,0,0,0,0,0
379,129,238,2460,15856,0,0,0,0,0,0,0,0,0,0,0
380,129,232,2552,15938,0,0,0,0,0,0,0,0,0,0,0
381,129,340,2756,16364,0,0,0,0,0,0,0,0,0,0,0
382,129,480,2844,16266,0,0,0,0,0,0,0,0,0,0,0
383,129,390,2932,16042,0,0,0,0,0,0,0,0,0,0,0
384,129,36,2930,15748,0,0,0,0,0,0,0,0,0,0,0
385,129,4,3108,15614,0,0,0,0,0,0,0,0,0,0,0
386,129,464,3162,16426,0,0,0,0,0,0,0,0,0,0,0
387,129,424,3214,16638,0,0,0,0,0,0,0,0,0,0,0
388,129,368,3234,16362,0,0,0,0,0,0,0,0,0,0,0
389,129,514,3238,16160,0,0,0,0,0,0,0,0,0,0,0
390,129,214,3390,16194,0,0,0,0,0,0,0,0,0,0,0
391,129,298,3228,16238,0,0,0,0,0,0,0,0,0,0,0
392,129,298,3356,16236,0,0,0,0,0,0,0,0,0,0,0
393,129,356,3374,16214,0,0,0,0,0,0,0,0,0,0,0
394,129,270,3468,16188,0,0,0,0,0,0,0,0,0,0,0
395,129,370,3446,15900,0,0,0,0,0,0,0,0,0,0,0
396,129,436,3398,16166,0,0,0,0,0,0,0,0,0,0,0
397,129,236,3306,16216,0,0,0,0,0,0,0,0,0,0,0
398,129,302,3324,16112,0,0,0,0,0,0,0,0,0,0,0
399,129,390,3222,15794,0,0,0,0,0,0,0,0,0,0,0
400,129,288,3274,16152,0,0,0,0,0,0,0,0,0,0,0
401,129,294,3252,16154,0,0,0,0,0,0,0,0,0,0,0
402,129,338,3260,15904,0,0,0,0,0,0,0,0,0,0,0
403,129,202,3266,15972,0,0,0,0,0,0,0,0,0,0,0
404,129,308,3362,16258,0,0,0,0,0,0,0,0,0,0,0
405,129,338,3256,16078,0,0,0,0,0,0,0,0,0,0,0
406,129,176,3330,16038,0,0,0,0,0,0,0,0,0,0,0
407,129,224,3428,16024,0,0,0,0,0,0,0,0,0,0,0
408,129,334,3424,15902,0,0,0,0,0,0,0,0,0,0,0
409,129,400,3396,15972,0,0,0,0,0,0,0,0,0,0,0
410,129,280,3518,15742,0,0,0,0,0,0,0,0,0,0,0
411,129,352,3558,15990,0,0,0,0,0,0,0,0,0,0,0
412,129,420,3606,15734,0,0,0,0,0,0,0,0,0,0,0
413,129,248,3704,15570,0,0,0,0,0,0,0,0,0,0,0
414,129,294,3744,15788,0,0,0,0,0,0,0,0,0,0,0
415,129,314,4022,15898,0,0,0,0,0,0,0,0,0,0,0
416,129,226,4208,15958,0,0,0,0,0,0,0,0,0,0,0
417,129,144,4462,15854,0,0,0,0,0,0,0,0,0,0,0
418,129,220,4582,15968,0,0,0,0,0,0,0,0,0,0,0
419,129,396,4808,15564,0,0,0,0,0,0,0,0,0,0,0
420,129,236,5004,15848,0,0,0,0,0,0,0,0,0,0,0
421,129,300,5158,15682,0,0,0,0,0,0,0,0,0,0,0
422,129,402,5196,15310,0,0,0,0,0,0,0,0,0,0,0
423,129,262,5310,14974,0,0,0,0,0,0,0,0,0,0,0
424,129,332,5736,14810,0,0,0,0,0,0,0,0,0,0,0
425,129,128,6014,14228,0,0,0,0,0,0,0,0,0,0,0
426,129,-142,7242,15062,0,0,0,0,0,0,0,0,0,0,0
427,129,572,7252,14570,0,0,0,0,0,0,0,0,0,0,0
428,129,308,7876,14380,0,0,0,0,0,0,0,0,0,0,0
429,129,132,7896,14444,0,0,0,0,0,0,0,0,0,0,0
430,129,234,8894,13908,0,0,0,0,0,0,0,0,0,0,0
431,129,386,9284,14278,0,0,0,0,0,0,0,0,0,0,0
432,129,254,9600,13302,0,0,0,0,0,0,0,0,0,0,0
433,129,148,10234,13168,0,0,0,0,0,0,0,0,0,0,0
434,129,116,10752,13290,0,0,0,0,0,0,0,0,0,0,0
435,129,192,10970,12672,0,0,0,0,0,0,0,0,0,0,0
436,129,326,10908,11610,0,0,0,0,0,0,0,0,0,0,0
437,129,-70,11852,11132,0,0,0,0,0,0,0,0,0,0,0
438,129,-32,12184,11556,0,0,0,0,0,0,0,0,0,0,0
439,129,36,12200,10708,0,0,0,0,0,0,0,0,0,0,0
440,129,38,12568,10438,0,0,0,0,0,0,0,0,0,0,0
441,129,168,12972,10608,0,0,0,0,0,0,0,0,0,0,0
442,129,-3044,14982,17960,0,0,0,0,0,0,0,0,0,0,0
443,129,-44,13772,9320,0,0,0,0,0,0,0,0,0,0,0
444,129,-254,13892,9072,0,0,0,0,0,0,0,0,0,0,0
445,129,-540,14352,9138,0,0,0,0,0,0,0,0,0,0,0
446,129,-1104,15004,8146,0,0,0,0,0,0,0,0,0,0,0
447,129,-180,14512,7854,0,0,0,0,0,0,0,0,0,0,0
448,129,-450,14818,7132,0,0,0,0,0,0,0,0,0,0,0
449,129,-768,15302,6992,0,0,0,0,0,0,0,0,0,0,0
450,129,-18,14994,4420,0,0,0,0,0,0,0,0,0,0,0
451,129,-794,16126,6158,0,0,0,0,0,0,0,0,0,0,0
452,129,-782,15240,5886,0,0,0,0,0,0,0,0,0,0,0
453,129,-750,15414,5294,0,0,0,0,0,0,0,0,0,0,0
454,129,-514,15806,4566,0,0,0,0,0,0,0,0,0,0,0
455,129,-828,15872,4108,0,0,0,0,0,0,0,0,0,0,0
456,129,-1256,15746,4106,0,0,0,0,0,0,0,0,0,0,0
457,129,-828,16442,4136,0,0,0,0,0,0,0,0,0,0,0
458,129,-428,16158,3738,0,0,0,0,0,0,0,0,0,0,0
459,129,-590,16150,3218,0,0,0,0,0,0,0,0,0,0,0
460,129,-896,16308,2832,0,0,0,0,0,0,0,0,0,0,0
461,129,-1196,16342,2460,0,0,0,0,0,0,0,0,0,0,0
462,129,-826,16112,2284,0,0,0,0,0,0,0,0,0,0,0
463,129,-186,16046,2040,0,0,0,0,0,0,0,0,0,0,0
464,129,-398,16426,2042,0,0,0,0,0,0,0,0,0,0,0
465,129,-958,16602,1618,0,0,0,0,0,0,0,0,0,0,0
466,129,-1186,16408,1596,0,0,0,0,0,0,0,0,0,0,0
467,129,-688,16460,1578,0,0,0,0,0,0,0,0,0,0,0
468,129,-354,16386,1450,0,0,0,0,0,0,0,0,0,0,0
469,129,-668,16392,1176,0,0,0,0,0,0,0,0,0,0,0
470,129,-834,16366,1024,0,0,0,0,0,0,0,0,0,0,0
471,129,-1120,16280,930,0,0,0,0,0,0,0,0,0,0,0
472,129,-398,16308,1162,0,0,0,0,0,0,0,0,0,0,0
473,129,-342,16344,960,0,0,0,0,0,0,0,0,0,0,0
474,129,-402,16712,144,0,0,0,0,0,0,0,0,0,0,0
475,129,-1118,17162,756,0,0,0,0,0,0,0,0,0,0,0
476,129,-302,16978,650,0,0,0,0,0,0,0,0,0,0,0
477,129,-632,16380,952,0,0,0,0,0,0,0,0,0,0,0
478,129,-334,16438,966,0,0,0,0,0,0,0,0,0,0,0
479,129,-234,16388,956,0,0,0,0,0,0,0,0,0,0,0
480,129,-694,16620,826,0,0,0,0,0,0,0,0,0,0,0
481,129,-706,16690,832,0,0,0,0,0,0,0,0,0,0,0
482,129,-340,16518,732,0,0,0,0,0,0,0,0,0,0,0
483,129,-170,16480,716,0,0,0,0,0,0,0,0,0,0,0
484,129,-518,16220,750,0,0,0,0,0,0,0,0,0,0,0
485,129,-648,16286,732,0,0,0,0,0,0,0,0,0,0,0
486,129,-274,16266,994,0,0,0,0,0,0,0,0,0,0,0
487,129,-592,15316,1198,0,0,0,0,0,0,0,0,0,0,0
488,129,-310,16400,1148,0,0,0,0,0,0,0,0,0,0,0
489,129,-336,16406,1006,0,0,0,0,0,0,0,0,0,0,0
490,129,-464,16612,966,0,0,0,0,0,0,0,0,0,0,0
491,129,-376,16486,896,0,0,0,0,0,0,0,0,0,0,0
492,129,-276,16482,1020,0,0,0,0,0,0,0,0,0,0,0
493,129,-336,16498,1052,0,0,0,0,0,0,0,0,0,0,0
494,129,-300,16472,1096,0,0,0,0,0,0,0,0,0,0,0
495,129,-244,16410,992,0,0,0,0,0,0,0,0,0,0,0
496,129,-404,16436,916,0,0,0,0,0,0,0,0,0,0,0
497,129,-316,16386,1024,0,0,0,0,0,0,0,0,0,0,0
498,129,-252,16536,1106,0,0,0,0,0,0,0,0,0,0,0
499,129,-262,16476,936,0,0,0,0,0,0,0,0,0,0,0
500,129,-208,16476,914,0,0,0,0,0,0,0,0,0,0,0
501,129,-260,16474,792,0,0,0,0,0,0,0,0,0,0,0
502,129,-244,16490,886,0,0,0,0,0,0,0,0,0,0,0
503,129,-336,16404,916,0,0,0,0,0,0,0,0,0,0,0
504,129,-272,16406,1032,0,0,0,0,0,0,0,0,0,0,0
505,129,-306,16462,860,0,0,0,0,0,0,0,0,0,0,0
506,129,-236,16520,826,0,0,0,0,0,0,0,0,0,0,0
507,129,860,16240,1256,0,0,0,0,0,0,0,0,0,0,0
508,129,-232,16422,1056,0,0,0,0,0,0,0,0,0,0,0
509,129,-194,16472,826,0,0,0,0,0,0,0,0,0,0,0
510,129,-226,16556,956,0,0,0,0,0,0,0,0,0,0,0
511,129,-186,16334,970,0,0,0,0,0,0,0,0,0,0,0
512,129,-222,16446,990,0,0,0,0,0,0,0,0,0,0,0
513,129,-296,16390,874,0,0,0,0,0,0,0,0,0,0,0
514,129,-164,16536,982,0,0,0,0,0,0,0,0,0,0,0
515,129,-88,16514,912,0,0,0,0,0,0,0,0,0,0,0
516,129,-128,16466,942,0,0,0,0,0,0,0,0,0,0,0
517,129,-142,16462,982,0,0,0,0,0,0,0,0,0,0,0
518,129,-182,16414,842,0,0,0,0,0,0,0,0,0,0,0
519,129,-248,16398,944,0,0,0,0,0,0,0,0,0,0,0
520,129,-216,16414,856,0,0,0,0,0,0,0,0,0,0,0
521,129,-256,16514,890,0,0,0,0,0,0,0,0,0,0,0
522,129,-160,16526,988,0,0,0,0,0,0,0,0,0,0,0
523,129,-116,16456,858,0,0,0,0,0,0,0,0,0,0,0
524,129,-102,16448,960,0,0,0,0,0,0,0,0,0,0,0
525,129,-148,16432,932,0,0,0,0,0,0,0,0,0,0,0
526,129,-210,16452,986,0,0,0,0,0,0,0,0,0,0,0
527,129,-156,16498,1086,0,0,0,0,0,0,0,0,0,0,0
528,129,-120,16478,970,0,0,0,0,0,0,0,0,0,0,0
529,129,-180,16422,812,0,0,0,0,0,0,0,0,0,0,0
530,129,-122,16488,998,0,0,0,0,0,0,0,0,0,0,0
531,129,-150,16396,904,0,0,0,0,0,0,0,0,0,0,0
532,129,-172,16462,1074,0,0,0,0,0,0,0,0,0,0,0
533,129,-166,16534,1098,0,0,0,0,0,0,0,0,0,0,0
534,129,-212,16482,974,0,0,0,0,0,0,0,0,0,0,0
535,129,-90,16466,938,0,0,0,0,0,0,0,0,0,0,0
536,129,-160,16458,944,0,0,0,0,0,0,0,0,0,0,0
537,129,-178,16370,1116,0,0,0,0,0,0,0,0,0,0,0
538,129,-112,16480,972,0,0,0,0,0,0,0,0,0,0,0
539,129,-174,16504,878,0,0,0,0,0,0,0,0,0,0,0
540,129,-110,16542,1022,0,0,0,0,0,0,0,0,0,0,0
541,129,-182,16566,908,0,0,0,0,0,0,0,0,0,0,0
542,129,-112,16366,1094,0,0,0,0,0,0,0,0,0,0,0
543,129,-142,16472,930,0,0,0,0,0,0,0,0,0,0,0
544,129,-56,16500,944,0,0,0,0,0,0,0,0,0,0,0
545,129,-200,16460,964,0,0,0,0,0,0,0,0,0,0,0
546,129,-182,16462,1022,0,0,0,0,0,0,0,0,0,0,0
547,129,-124,16426,1062,0,0,0,0,0,0,0,0,0,0,0
548,129,-146,16476,926,0,0,0,0,0,0,0,0,0,0,0
549,129,-140,16502,912,0,0,0,0,0,0,0,0,0,0,0
550,129,-110,16544,1024,0,0,0,0,0,0,0,0,0,0,0
551,129,-94,16394,1062,0,0,0,0,0,0,0,0,0,0,0
552,129,-126,16440,1000,0,0,0,0,0,0,0,0,0,0,0
553,129,-142,16492,922,0,0,0,0,0,0,0,0,0,0,0
554,129,-128,16482,1060,0,0,0,0,0,0,0,0,0,0,0
555,129,-100,16518,972,0,0,0,0,0,0,0,0,0,0,0
556,129,-190,16424,1052,0,0,0,0,0,0,0,0,0,0,0
557,129,-166,16544,1056,0,0,0,0,0,0,0,0,0,0,0
558,129,-164,16430,1002,0,0,0,0,0,0,0,0,0,0,0
559,129,-146,16506,904,0,0,0,0,0,0,0,0,0,0,0
560,129,-158,16362,1112,0,0,0,0,0,0,0,0,0,0,0
561,129,-278,16390,958,0,0,0,0,0,0,0,0,0,0,0
562,129,-156,16516,1006,0,0,0,0,0,0,0,0,0,0,0
563,129,-110,16418,970,0,0,0,0,0,0,0,0,0,0,0
564,129,-140,16398,1068,0,0,0,0,0,0,0,0,0,0,0
565,129,-82,16470,1038,0,0,0,0,0,0,0,0,0,0,0
566,129,-210,16442,1176,0,0,0,0,0,0,0,0,0,0,0
567,129,-178,16504,1098,0,0,0,0,0,0,0,0,0,0,0
568,129,-194,16482,1110,0,0,0,0,0,0,0,0,0,0,0
569,129,-184,16530,1108,0,0,0,0,0,0,0,0,0,0,0
570,129,-72,16464,1126,0,0,0,0,0,0,0,0,0,0,0
571,129,-138,16502,1032,0,0,0,0,0,0,0,0,0,0,0
572,129,-190,16386,1040,0,0,0,0,0,0,0,0,0,0,0
573,129,-156,16428,1146,0,0,0,0,0,0,0,0,0,0,0
574,129,-136,16428,1100,0,0,0,0,0,0,0,0,0,0,0
575,129,-190,16480,1100,0,0,0,0,0,0,0,0,0,0,0
576,129,-36,16496,1148,0,0,0,0,0,0,0,0,0,0,0
577,129,-102,16318,1062,0,0,0,0,0,0,0,0,0,0,0
578,129,-120,16418,1070,0,0,0,0,0,0,0,0,0,0,0
579,129,-114,16418,1090,0,0,0,0,0,0,0,0,0,0,0
580,129,-92,16402,1058,0,0,0,0,0,0,0,0,0,0,0
581,129,-198,16456,950,0,0,0,0,0,0,0,0,0,0,0
582,129,-116,16426,1048,0,0,0,0,0,0,0,0,0,0,0
583,129,-148,16434,1162,0,0,0,0,0,0,0,0,0,0,0
584,129,-82,16448,1148,0,0,0,0,0,0,0,0,0,0,0
585,129,-162,16414,1044,0,0,0,0,0,0,0,0,0,0,0
586,129,-140,16512,1174,0,0,0,0,0,0,0,0,0,0,0
587,129,-150,16442,1038,0,0,0,0,0,0,0,0,0,0,0
588,129,-198,16470,1132,0,0,0,0,0,0,0,0,0,0,0
589,129,-100,16362,1140,0,0,0,0,0,0,0,0,0,0,0
590,129,-156,16476,1206,0,0,0,0,0,0,0,0,0,0,0
