ProgrNum,PacketType,AccX,AccY,AccZ,GyrX,GyrY,GyrZ,MagX,MagY,MagZ,Q0,Q1,Q2,Q3,Vbat
0,129,-93,16732,-275,0,0,0,0,0,0,0,0,0,0,0
1,129,9,16711,-220,0,0,0,0,0,0,0,0,0,0,0
2,129,-37,16680,-189,0,0,0,0,0,0,0,0,0,0,0
3,129,-60,16695,-295,0,0,0,0,0,0,0,0,0,0,0
4,129,-6,16677,-241,0,0,0,0,0,0,0,0,0,0,0
5,129,-15,16640,-339,0,0,0,0,0,0,0,0,0,0,0
6,129,1,16672,-337,0,0,0,0,0,0,0,0,0,0,0
7,129,-43,16689,-353,0,0,0,0,0,0,0,0,0,0,0
8,129,-14,16678,-289,0,0,0,0,0,0,0,0,0,0,0
9,129,-28,16768,-280,0,0,0,0,0,0,0,0,0,0,0
10,129,29,16712,-194,0,0,0,0,0,0,0,0,0,0,0
11,129,63,16756,-487,0,0,0,0,0,0,0,0,0,0,0
12,129,11,16741,-306,0,0,0,0,0,0,0,0,0,0,0
13,129,-44,16692,-267,0,0,0,0,0,0,0,0,0,0,0
14,129,1,16681,-284,0,0,0,0,0,0,0,0,0,0,0
15,129,15,16755,-250,0,0,0,0,0,0,0,0,0,0,0
16,129,-36,16686,-223,0,0,0,0,0,0,0,0,0,0,0
17,129,-74,16668,-350,0,0,0,0,0,0,0,0,0,0,0
18,129,-63,16569,-282,0,0,0,0,0,0,0,0,0,0,0
19,129,-100,16690,-312,0,0,0,0,0,0,0,0,0,0,0
20,129,1,16787,-417,0,0,0,0,0,0,0,0,0,0,0
21,129,-50,16665,-351,0,0,0,0,0,0,0,0,0,0,0
22,129,-38,16738,-294,0,0,0,0,0,0,0,0,0,0,0
23,129,-2,16666,-313,0,0,0,0,0,0,0,0,0,0,0
24,129,-139,16725,-272,0,0,0,0,0,0,0,0,0,0,0
25,129,-43,16701,-305,0,0,0,0,0,0,0,0,0,0,0
26,129,21,16812,-319,0,0,0,0,0,0,0,0,0,0,0
27,129,-192,16824,-389,0,0,0,0,0,0,0,0,0,0,0
28,129,-6,16613,-465,0,0,0,0,0,0,0,0,0,0,0
29,129,-129,16755,-451,0,0,0,0,0,0,0,0,0,0,0
30,129,-167,16706,-336,0,0,0,0,0,0,0,0,0,0,0
31,129,-61,16582,-568,0,0,0,0,0,0,0,0,0,0,0
32,129,-97,16786,-389,0,0,0,0,0,0,0,0,0,0,0
33,129,-179,16570,-602,0,0,0,0,0,0,0,0,0,0,0
34,129,-189,16790,-406,0,0,0,0,0,0,0,0,0,0,0
35,129,-239,16706,-443,0,0,0,0,0,0,0,0,0,0,0
36,129,-250,16494,-533,0,0,0,0,0,0,0,0,0,0,0
37,129,-120,16696,-552,0,0,0,0,0,0,0,0,0,0,0
38,129,-96,16623,-472,0,0,0,0,0,0,0,0,0,0,0
39,129,-32,16711,-498,0,0,0,0,0,0,0,0,0,0,0
40,129,-2166,17202,122,0,0,0,0,0,0,0,0,0,0,0
41,129,543,16522,-901,0,0,0,0,0,0,0,0,0,0,0
42,129,35,16779,-619,0,0,0,0,0,0,0,0,0,0,0
43,129,-214,16665,-723,0,0,0,0,0,0,0,0,0,0,0
44,129,-207,16638,-593,0,0,0,0,0,0,0,0,0,0,0
45,129,-85,16765,-650,0,0,0,0,0,0,0,0,0,0,0
46,129,-52,16701,-772,0,0,0,0,0,0,0,0,0,0,0
47,129,-127,16711,-835,0,0,0,0,0,0,0,0,0,0,0
48,129,-32,16652,-833,0,0,0,0,0,0,0,0,0,0,0
49,129,-27,16724,-806,0,0,0,0,0,0,0,0,0,0,0
50,129,-118,16741,-587,0,0,0,0,0,0,0,0,0,0,0
51,129,-53,16719,-838,0,0,0,0,0,0,0,0,0,0,0
52,129,-21,16642,-809,0,0,0,0,0,0,0,0,0,0,0
53,129,49,16758,-749,0,0,0,0,0,0,0,0,0,0,0
54,129,111,16754,-732,0,0,0,0,0,0,0,0,0,0,0
55,129,142,16844,-579,0,0,0,0,0,0,0,0,0,0,0
56,129,37,16716,-695,0,0,0,0,0,0,0,0,0,0,0
57,129,9,16704,-638,0,0,0,0,0,0,0,0,0,0,0
58,129,-192,16751,-626,0,0,0,0,0,0,0,0,0,0,0
59,129,-203,16788,-668,0,0,0,0,0,0,0,0,0,0,0
60,129,-166,16717,-730,0,0,0,0,0,0,0,0,0,0,0
61,129,-376,16599,-652,0,0,0,0,0,0,0,0,0,0,0
62,129,-252,16659,-662,0,0,0,0,0,0,0,0,0,0,0
63,129,-168,16810,-595,0,0,0,0,0,0,0,0,0,0,0
64,129,-289,16700,-492,0,0,0,0,0,0,0,0,0,0,0
65,129,-289,16803,-407,0,0,0,0,0,0,0,0,0,0,0
66,129,-211,16679,-235,0,0,0,0,0,0,0,0,0,0,0
67,129,-311,16671,-267,0,0,0,0,0,0,0,0,0,0,0
68,129,-367,16637,-260,0,0,0,0,0,0,0,0,0,0,0
69,129,-371,16715,-415,0,0,0,0,0,0,0,0,0,0,0
70,129,-382,16560,-313,0,0,0,0,0,0,0,0,0,0,0
71,129,-332,16754,-414,0,0,0,0,0,0,0,0,0,0,0
72,129,-267,16763,-423,0,0,0,0,0,0,0,0,0,0,0
73,129,-249,16794,-364,0,0,0,0,0,0,0,0,0,0,0
74,129,-298,16711,-244,0,0,0,0,0,0,0,0,0,0,0
75,129,-301,16757,-290,0,0,0,0,0,0,0,0,0,0,0
76,129,-229,16709,-97,0,0,0,0,0,0,0,0,0,0,0
77,129,-305,16687,-256,0,0,0,0,0,0,0,0,0,0,0
78,129,-368,16580,-508,0,0,0,0,0,0,0,0,0,0,0
79,129,-448,16625,-688,0,0,0,0,0,0,0,0,0,0,0
80,129,-346,16775,-602,0,0,0,0,0,0,0,0,0,0,0
81,129,-436,16644,-632,0,0,0,0,0,0,0,0,0,0,0
82,129,-364,16768,-564,0,0,0,0,0,0,0,0,0,0,0
83,129,-424,16729,-545,0,0,0,0,0,0,0,0,0,0,0
84,129,4925,14532,-3244,0,0,0,0,0,0,0,0,0,0,0
85,129,-1098,17622,-187,0,0,0,0,0,0,0,0,0,0,0
86,129,-434,16844,-344,0,0,0,0,0,0,0,0,0,0,0
87,129,-910,16654,548,0,0,0,0,0,0,0,0,0,0,0
88,129,-273,16663,-306,0,0,0,0,0,0,0,0,0,0,0
89,129,-164,16784,-523,0,0,0,0,0,0,0,0,0,0,0
90,129,-345,16655,-423,0,0,0,0,0,0,0,0,0,0,0
91,129,-226,16759,-386,0,0,0,0,0,0,0,0,0,0,0
92,129,-229,16696,-429,0,0,0,0,0,0,0,0,0,0,0
93,129,-36,16919,-694,0,0,0,0,0,0,0,0,0,0,0
94,129,-341,16643,-393,0,0,0,0,0,0,0,0,0,0,0
95,129,-322,16713,-596,0,0,0,0,0,0,0,0,0,0,0
96,129,-273,16722,-645,0,0,0,0,0,0,0,0,0,0,0
97,129,-334,16653,-563,0,0,0,0,0,0,0,0,0,0,0
98,129,-323,16785,-681,0,0,0,0,0,0,0,0,0,0,0
99,129,-245,16751,-740,0,0,0,0,0,0,0,0,0,0,0
100,129,-252,16691,-543,0,0,0,0,0,0,0,0,0,0,0
101,129,-201,16726,-578,0,0,0,0,0,0,0,0,0,0,0
102,129,-235,16656,-376,0,0,0,0,0,0,0,0,0,0,0
103,129,-254,16697,-629,0,0,0,0,0,0,0,0,0,0,0
104,129,-301,16752,-523,0,0,0,0,0,0,0,0,0,0,0
105,129,-210,16750,-602,0,0,0,0,0,0,0,0,0,0,0
106,129,-230,16716,-513,0,0,0,0,0,0,0,0,0,0,0
107,129,-215,16754,-538,0,0,0,0,0,0,0,0,0,0,0
108,129,-269,16757,-549,0,0,0,0,0,0,0,0,0,0,0
109,129,-159,16720,-532,0,0,0,0,0,0,0,0,0,0,0
110,129,-221,16750,-474,0,0,0,0,0,0,0,0,0,0,0
111,129,-252,16723,-531,0,0,0,0,0,0,0,0,0,0,0
112,129,-291,16756,-519,0,0,0,0,0,0,0,0,0,0,0
113,129,-274,16690,-584,0,0,0,0,0,0,0,0,0,0,0
114,129,-193,16743,-508,0,0,0,0,0,0,0,0,0,0,0
115,129,-189,16757,-656,0,0,0,0,0,0,0,0,0,0,0
116,129,-262,16679,-394,0,0,0,0,0,0,0,0,0,0,0
117,129,-282,16696,-594,0,0,0,0,0,0,0,0,0,0,0
118,129,-239,16706,-469,0,0,0,0,0,0,0,0,0,0,0
119,129,-258,16747,-651,0,0,0,0,0,0,0,0,0,0,0
120,129,-230,16708,-581,0,0,0,0,0,0,0,0,0,0,0
121,129,-294,16728,-484,0,0,0,0,0,0,0,0,0,0,0
122,129,-231,16754,-526,0,0,0,0,0,0,0,0,0,0,0
123,129,-246,16777,-592,0,0,0,0,0,0,0,0,0,0,0
124,129,-258,16800,-472,0,0,0,0,0,0,0,0,0,0,0
125,129,-244,16714,-463,0,0,0,0,0,0,0,0,0,0,0
126,129,-206,16744,-626,0,0,0,0,0,0,0,0,0,0,0
127,129,-246,16687,-641,0,0,0,0,0,0,0,0,0,0,0
128,129,-263,16801,-570,0,0,0,0,0,0,0,0,0,0,0
129,129,-299,16720,-590,0,0,0,0,0,0,0,0,0,0,0
130,129,-290,16622,-405,0,0,0,0,0,0,0,0,0,0,0
131,129,-195,16710,-604,0,0,0,0,0,0,0,0,0,0,0
132,129,-404,16604,-730,0,0,0,0,0,0,0,0,0,0,0
133,129,-177,16759,-711,0,0,0,0,0,0,0,0,0,0,0
134,129,-240,16697,-619,0,0,0,0,0,0,0,0,0,0,0
135,129,-168,16747,-662,0,0,0,0,0,0,0,0,0,0,0
136,129,-315,16738,-554,0,0,0,0,0,0,0,0,0,0,0
137,129,-301,16734,-577,0,0,0,0,0,0,0,0,0,0,0
138,129,-234,16802,-506,0,0,0,0,0,0,0,0,0,0,0
139,129,-232,16751,-632,0,0,0,0,0,0,0,0,0,0,0
140,129,-233,16725,-631,0,0,0,0,0,0,0,0,0,0,0
141,129,-310,16653,-540,0,0,0,0,0,0,0,0,0,0,0
142,129,-278,16708,-575,0,0,0,0,0,0,0,0,0,0,0
143,129,-276,16746,-623,0,0,0,0,0,0,0,0,0,0,0
144,129,-321,16721,-622,0,0,0,0,0,0,0,0,0,0,0
145,129,-396,16719,-603,0,0,0,0,0,0,0,0,0,0,0
146,129,-303,16822,-593,0,0,0,0,0,0,0,0,0,0,0
147,129,-340,16660,-681,0,0,0,0,0,0,0,0,0,0,0
148,129,-342,16700,-640,0,0,0,0,0,0,0,0,0,0,0
149,129,-248,16825,-636,0,0,0,0,0,0,0,0,0,0,0
150,129,-291,16698,-678,0,0,0,0,0,0,0,0,0,0,0
151,129,-291,16758,-495,0,0,0,0,0,0,0,0,0,0,0
152,129,-370,16712,-601,0,0,0,0,0,0,0,0,0,0,0
153,129,-366,16756,-644,0,0,0,0,0,0,0,0,0,0,0
154,129,-392,16683,-679,0,0,0,0,0,0,0,0,0,0,0
155,129,-299,16699,-646,0,0,0,0,0,0,0,0,0,0,0
156,129,-278,16715,-497,0,0,0,0,0,0,0,0,0,0,0
157,129,-255,16723,-607,0,0,0,0,0,0,0,0,0,0,0
158,129,-237,16732,-543,0,0,0,0,0,0,0,0,0,0,0
159,129,-265,16730,-789,0,0,0,0,0,0,0,0,0,0,0
160,129,-249,16781,-694,0,0,0,0,0,0,0,0,0,0,0
161,129,-304,16677,-644,0,0,0,0,0,0,0,0,0,0,0
162,129,-300,16702,-630,0,0,0,0,0,0,0,0,0,0,0
163,129,-356,16630,-655,0,0,0,0,0,0,0,0,0,0,0
164,129,-352,16723,-552,0,0,0,0,0,0,0,0,0,0,0
165,129,-413,16656,-698,0,0,0,0,0,0,0,0,0,0,0
166,129,-307,16744,-619,0,0,0,0,0,0,0,0,0,0,0
167,129,-268,16728,-665,0,0,0,0,0,0,0,0,0,0,0
168,129,-278,16818,-678,0,0,0,0,0,0,0,0,0,0,0
169,129,-379,16655,-687,0,0,0,0,0,0,0,0,0,0,0
170,129,-367,16666,-601,0,0,0,0,0,0,0,0,0,0,0
171,129,-329,16837,-697,0,0,0,0,0,0,0,0,0,0,0
172,129,-262,16773,-575,0,0,0,0,0,0,0,0,0,0,0
173,129,-298,16649,-714,0,0,0,0,0,0,0,0,0,0,0
174,129,-311,16691,-694,0,0,0,0,0,0,0,0,0,0,0
175,129,-350,16738,-762,0,0,0,0,0,0,0,0,0,0,0
176,129,-325,16809,-581,0,0,0,0,0,0,0,0,0,0,0
177,129,-370,16667,-715,0,0,0,0,0,0,0,0,0,0,0
178,129,-396,16753,-632,0,0,0,0,0,0,0,0,0,0,0
179,129,-290,16736,-679,0,0,0,0,0,0,0,0,0,0,0
180,129,-288,16717,-761,0,0,0,0,0,0,0,0,0,0,0
181,129,-247,16751,-762,0,0,0,0,0,0,0,0,0,0,0
182,129,-301,16701,-714,0,0,0,0,0,0,0,0,0,0,0
183,129,-339,16622,-769,0,0,0,0,0,0,0,0,0,0,0
184,129,-324,16849,-842,0,0,0,0,0,0,0,0,0,0,0
185,129,-387,16721,-669,0,0,0,0,0,0,0,0,0,0,0
186,129,-551,16698,-799,0,0,0,0,0,0,0,0,0,0,0
187,129,-412,16811,-750,0,0,0,0,0,0,0,0,0,0,0
188,129,-455,16605,-577,0,0,0,0,0,0,0,0,0,0,0
189,129,-390,16740,-986,0,0,0,0,0,0,0,0,0,0,0
190,129,-410,16744,-765,0,0,0,0,0,0,0,0,0,0,0
191,129,-362,16723,-1010,0,0,0,0,0,0,0,0,0,0,0
192,129,-539,16645,-783,0,0,0,0,0,0,0,0,0,0,0
193,129,-340,16700,-886,0,0,0,0,0,0,0,0,0,0,0
194,129,-403,16668,-917,0,0,0,0,0,0,0,0,0,0,0
195,129,-291,16723,-899,0,0,0,0,0,0,0,0,0,0,0
196,129,-257,16826,-792,0,0,0,0,0,0,0,0,0,0,0
197,129,-477,16626,-843,0,0,0,0,0,0,0,0,0,0,0
198,129,-378,16820,-703,0,0,0,0,0,0,0,0,0,0,0
199,129,-410,16650,-803,0,0,0,0,0,0,0,0,0,0,0
200,129,-213,16787,-824,0,0,0,0,0,0,0,0,0,0,0
201,129,-685,16654,-329,0,0,0,0,0,0,0,0,0,0,0
202,129,-94,16795,-632,0,0,0,0,0,0,0,0,0,0,0
203,129,-202,16703,-824,0,0,0,0,0,0,0,0,0,0,0
204,129,-440,16658,-1051,0,0,0,0,0,0,0,0,0,0,0
205,129,-469,16642,-990,0,0,0,0,0,0,0,0,0,0,0
206,129,-332,16826,-909,0,0,0,0,0,0,0,0,0,0,0
207,129,-381,16732,-1146,0,0,0,0,0,0,0,0,0,0,0
208,129,-352,16848,-1286,0,0,0,0,0,0,0,0,0,0,0
209,129,-404,16647,-1083,0,0,0,0,0,0,0,0,0,0,0
210,129,-318,16762,-1079,0,0,0,0,0,0,0,0,0,0,0
211,129,-368,16776,-1067,0,0,0,0,0,0,0,0,0,0,0
212,129,-122,16858,-254,0,0,0,0,0,0,0,0,0,0,0
213,129,-289,16755,-943,0,0,0,0,0,0,0,0,0,0,0
214,129,-355,16719,-850,0,0,0,0,0,0,0,0,0,0,0
215,129,-325,16700,-926,0,0,0,0,0,0,0,0,0,0,0
216,129,-315,16788,-937,0,0,0,0,0,0,0,0,0,0,0
217,129,-255,16718,-865,0,0,0,0,0,0,0,0,0,0,0
218,129,-182,16834,-851,0,0,0,0,0,0,0,0,0,0,0
219,129,-366,16623,-875,0,0,0,0,0,0,0,0,0,0,0
220,129,-132,16781,-437,0,0,0,0,0,0,0,0,0,0,0
221,129,-226,16651,-767,0,0,0,0,0,0,0,0,0,0,0
222,129,-324,16668,-908,0,0,0,0,0,0,0,0,0,0,0
223,129,-273,16719,-895,0,0,0,0,0,0,0,0,0,0,0
224,129,-247,16628,-894,0,0,0,0,0,0,0,0,0,0,0
225,129,-388,16584,-766,0,0,0,0,0,0,0,0,0,0,0
226,129,-309,16723,-660,0,0,0,0,0,0,0,0,0,0,0
227,129,-297,16783,-964,0,0,0,0,0,0,0,0,0,0,0
228,129,-266,16732,-759,0,0,0,0,0,0,0,0,0,0,0
229,129,-194,16771,-594,0,0,0,0,0,0,0,0,0,0,0
230,129,-89,16763,-660,0,0,0,0,0,0,0,0,0,0,0
231,129,-336,16722,-760,0,0,0,0,0,0,0,0,0,0,0
232,129,-159,16823,-695,0,0,0,0,0,0,0,0,0,0,0
233,129,-351,16686,-750,0,0,0,0,0,0,0,0,0,0,0
234,129,-91,16858,-629,0,0,0,0,0,0,0,0,0,0,0
235,129,-252,16642,-710,0,0,0,0,0,0,0,0,0,0,0
236,129,-320,16629,-621,0,0,0,0,0,0,0,0,0,0,0
237,129,-252,16689,-635,0,0,0,0,0,0,0,0,0,0,0
238,129,-183,16733,-522,0,0,0,0,0,0,0,0,0,0,0
239,129,-356,16565,-854,0,0,0,0,0,0,0,0,0,0,0
240,129,-162,16667,-654,0,0,0,0,0,0,0,0,0,0,0
241,129,-62,16800,-612,0,0,0,0,0,0,0,0,0,0,0
242,129,-134,16725,-478,0,0,0,0,0,0,0,0,0,0,0
243,129,-122,16814,-666,0,0,0,0,0,0,0,0,0,0,0
244,129,-59,16640,-575,0,0,0,0,0,0,0,0,0,0,0
245,129,12,16767,-415,0,0,0,0,0,0,0,0,0,0,0
246,129,-49,16719,-512,0,0,0,0,0,0,0,0,0,0,0
247,129,-94,16745,-531,0,0,0,0,0,0,0,0,0,0,0
248,129,-7,16655,-551,0,0,0,0,0,0,0,0,0,0,0
249,129,-137,16714,-612,0,0,0,0,0,0,0,0,0,0,0
250,129,32,16686,-576,0,0,0,0,0,0,0,0,0,0,0
251,129,-80,16760,-570,0,0,0,0,0,0,0,0,0,0,0
252,129,-56,16658,-629,0,0,0,0,0,0,0,0,0,0,0
253,129,4,16784,-563,0,0,0,0,0,0,0,0,0,0,0
254,129,62,16724,-509,0,0,0,0,0,0,0,0,0,0,0
255,129,299,16728,-544,0,0,0,0,0,0,0,0,0,0,0
256,129,228,16758,-570,0,0,0,0,0,0,0,0,0,0,0
257,129,166,16658,-458,0,0,0,0,0,0,0,0,0,0,0
258,129,217,16768,-437,0,0,0,0,0,0,0,0,0,0,0
259,129,130,16784,-500,0,0,0,0,0,0,0,0,0,0,0
260,129,-124,16653,-438,0,0,0,0,0,0,0,0,0,0,0
261,129,-70,16732,-569,0,0,0,0,0,0,0,0,0,0,0
262,129,183,16729,-310,0,0,0,0,0,0,0,0,0,0,0
263,129,108,16724,-225,0,0,0,0,0,0,0,0,0,0,0
264,129,45,16652,-314,0,0,0,0,0,0,0,0,0,0,0
265,129,73,16681,-204,0,0,0,0,0,0,0,0,0,0,0
266,129,207,16706,-393,0,0,0,0,0,0,0,0,0,0,0
267,129,183,16759,-451,0,0,0,0,0,0,0,0,0,0,0
268,129,-6,16696,-436,0,0,0,0,0,0,0,0,0,0,0
269,129,41,16742,-325,0,0,0,0,0,0,0,0,0,0,0
270,129,129,16761,-494,0,0,0,0,0,0,0,0,0,0,0
271,129,158,16743,-392,0,0,0,0,0,0,0,0,0,0,0
272,129,58,16658,-278,0,0,0,0,0,0,0,0,0,0,0
273,129,46,16613,-319,0,0,0,0,0,0,0,0,0,0,0
274,129,115,16773,-404,0,0,0,0,0,0,0,0,0,0,0
275,129,58,16712,-471,0,0,0,0,0,0,0,0,0,0,0
276,129,63,16662,-354,0,0,0,0,0,0,0,0,0,0,0
277,129,37,16681,-478,0,0,0,0,0,0,0,0,0,0,0
278,129,-62,16561,-271,0,0,0,0,0,0,0,0,0,0,0
279,129,88,16652,-521,0,0,0,0,0,0,0,0,0,0,0
280,129,57,16762,-463,0,0,0,0,0,0,0,0,0,0,0
281,129,34,16679,-434,0,0,0,0,0,0,0,0,0,0,0
282,129,217,16690,-364,0,0,0,0,0,0,0,0,0,0,0
283,129,216,16690,-338,0,0,0,0,0,0,0,0,0,0,0
284,129,230,16793,-376,0,0,0,0,0,0,0,0,0,0,0
285,129,272,16723,-412,0,0,0,0,0,0,0,0,0,0,0
286,129,179,16697,-400,0,0,0,0,0,0,0,0,0,0,0
287,129,192,16651,-468,0,0,0,0,0,0,0,0,0,0,0
288,129,197,16693,-442,0,0,0,0,0,0,0,0,0,0,0
289,129,164,16642,-505,0,0,0,0,0,0,0,0,0,0,0
290,129,168,16650,-488,0,0,0,0,0,0,0,0,0,0,0
291,129,233,16668,-433,0,0,0,0,0,0,0,0,0,0,0
292,129,193,16665,-456,0,0,0,0,0,0,0,0,0,0,0
293,129,230,16803,-694,0,0,0,0,0,0,0,0,0,0,0
294,129,-386,16440,-753,0,0,0,0,0,0,0,0,0,0,0
295,129,-179,16568,-598,0,0,0,0,0,0,0,0,0,0,0
296,129,132,16811,-633,0,0,0,0,0,0,0,0,0,0,0
297,129,267,16828,-717,0,0,0,0,0,0,0,0,0,0,0
298,129,117,16727,-514,0,0,0,0,0,0,0,0,0,0,0
299,129,12,16654,-506,0,0,0,0,0,0,0,0,0,0,0
300,129,204,16709,-531,0,0,0,0,0,0,0,0,0,0,0
301,129,239,16701,-361,0,0,0,0,0,0,0,0,0,0,0
302,129,167,16653,-307,0,0,0,0,0,0,0,0,0,0,0
303,129,97,16655,-381,0,0,0,0,0,0,0,0,0,0,0
304,129,38,16701,-553,0,0,0,0,0,0,0,0,0,0,0
305,129,82,16758,-548,0,0,0,0,0,0,0,0,0,0,0
306,129,243,16753,-444,0,0,0,0,0,0,0,0,0,0,0
307,129,169,16670,-464,0,0,0,0,0,0,0,0,0,0,0
308,129,257,16735,-287,0,0,0,0,0,0,0,0,0,0,0
309,129,192,16675,-378,0,0,0,0,0,0,0,0,0,0,0
310,129,228,16873,-379,0,0,0,0,0,0,0,0,0,0,0
311,129,160,16801,-465,0,0,0,0,0,0,0,0,0,0,0
312,129,270,16698,-203,0,0,0,0,0,0,0,0,0,0,0
313,129,52,16646,-268,0,0,0,0,0,0,0,0,0,0,0
314,129,-46,16688,-243,0,0,0,0,0,0,0,0,0,0,0
315,129,-24,16696,-279,0,0,0,0,0,0,0,0,0,0,0
316,129,-186,16672,-155,0,0,0,0,0,0,0,0,0,0,0
317,129,-103,16680,-234,0,0,0,0,0,0,0,0,0,0,0
318,129,-179,16667,-15,0,0,0,0,0,0,0,0,0,0,0
319,129,-125,16756,-227,0,0,0,0,0,0,0,0,0,0,0
320,129,-159,16717,-86,0,0,0,0,0,0,0,0,0,0,0
321,129,-266,16705,-4,0,0,0,0,0,0,0,0,0,0,0
322,129,-308,16649,-77,0,0,0,0,0,0,0,0,0,0,0
323,129,-216,16740,-161,0,0,0,0,0,0,0,0,0,0,0
324,129,-216,16698,-85,0,0,0,0,0,0,0,0,0,0,0
325,129,-223,16637,-136,0,0,0,0,0,0,0,0,0,0,0
326,129,-194,16723,6,0,0,0,0,0,0,0,0,0,0,0
327,129,-268,16696,-98,0,0,0,0,0,0,0,0,0,0,0
328,129,-233,16734,184,0,0,0,0,0,0,0,0,0,0,0
329,129,-262,16612,-105,0,0,0,0,0,0,0,0,0,0,0
330,129,-242,16676,97,0,0,0,0,0,0,0,0,0,0,0
331,129,-260,16556,-101,0,0,0,0,0,0,0,0,0,0,0
332,129,-185,16768,101,0,0,0,0,0,0,0,0,0,0,0
333,129,-162,16764,-4,0,0,0,0,0,0,0,0,0,0,0
334,129,-292,16650,-15,0,0,0,0,0,0,0,0,0,0,0
335,129,-172,16607,145,0,0,0,0,0,0,0,0,0,0,0
336,129,-270,16694,410,0,0,0,0,0,0,0,0,0,0,0
337,129,-179,16686,304,0,0,0,0,0,0,0,0,0,0,0
338,129,-223,16693,299,0,0,0,0,0,0,0,0,0,0,0
339,129,-248,16661,540,0,0,0,0,0,0,0,0,0,0,0
340,129,-229,16686,13,0,0,0,0,0,0,0,0,0,0,0
341,129,-432,16620,515,0,0,0,0,0,0,0,0,0,0,0
342,129,-409,16632,450,0,0,0,0,0,0,0,0,0,0,0
343,129,-393,16598,350,0,0,0,0,0,0,0,0,0,0,0
344,129,-323,16711,520,0,0,0,0,0,0,0,0,0,0,0
345,129,-527,16427,454,0,0,0,0,0,0,0,0,0,0,0
346,129,-508,16554,538,0,0,0,0,0,0,0,0,0,0,0
347,129,-286,16716,408,0,0,0,0,0,0,0,0,0,0,0
348,129,-427,16612,445,0,0,0,0,0,0,0,0,0,0,0
349,129,-374,16675,315,0,0,0,0,0,0,0,0,0,0,0
350,129,-299,16771,257,0,0,0,0,0,0,0,0,0,0,0
351,129,-423,16658,296,0,0,0,0,0,0,0,0,0,0,0
352,129,-337,16698,312,0,0,0,0,0,0,0,0,0,0,0
353,129,-356,16657,275,0,0,0,0,0,0,0,0,0,0,0
354,129,-532,16615,260,0,0,0,0,0,0,0,0,0,0,0
355,129,-320,16718,206,0,0,0,0,0,0,0,0,0,0,0
356,129,-314,16671,312,0,0,0,0,0,0,0,0,0,0,0
357,129,-286,16699,178,0,0,0,0,0,0,0,0,0,0,0
358,129,-403,16704,255,0,0,0,0,0,0,0,0,0,0,0
359,129,-310,16733,272,0,0,0,0,0,0,0,0,0,0,0
360,129,-354,16648,423,0,0,0,0,0,0,0,0,0,0,0
361,129,-395,16654,269,0,0,0,0,0,0,0,0,0,0,0
362,129,-333,16609,167,0,0,0,0,0,0,0,0,0,0,0
363,129,-368,16579,236,0,0,0,0,0,0,0,0,0,0,0
364,129,-306,16598,289,0,0,0,0,0,0,0,0,0,0,0
365,129,-492,16651,109,0,0,0,0,0,0,0,0,0,0,0
366,129,-438,16657,234,0,0,0,0,0,0,0,0,0,0,0
367,129,-453,16757,183,0,0,0,0,0,0,0,0,0,0,0
368,129,-391,16773,256,0,0,0,0,0,0,0,0,0,0,0
369,129,-437,16670,68,0,0,0,0,0,0,0,0,0,0,0
370,129,-378,16679,249,0,0,0,0,0,0,0,0,0,0,0
371,129,-468,16716,200,0,0,0,0,0,0,0,0,0,0,0
372,129,-416,16668,268,0,0,0,0,0,0,0,0,0,0,0
373,129,-407,16684,145,0,0,0,0,0,0,0,0,0,0,0
374,129,-474,16682,216,0,0,0,0,0,0,0,0,0,0,0
375,129,-419,16573,227,0,0,0,0,0,0,0,0,0,0,0
376,129,-335,16705,74,0,0,0,0,0,0,0,0,0,0,0
377,129,-397,16712,243,0,0,0,0,0,0,0,0,0,0,0
378,129,-405,16758,154,0,0,0,0,0,0,0,0,0,0,0
379,129,-402,16702,147,0,0,0,0,0,0,0,0,0,0,0
380,129,-374,16723,204,0,0,0,0,0,0,0,0,0,0,0
381,129,-278,16737,85,0,0,0,0,0,0,0,0,0,0,0
382,129,-328,16657,-29,0,0,0,0,0,0,0,0,0,0,0
383,129,-224,16734,76,0,0,0,0,0,0,0,0,0,0,0
384,129,-270,16639,220,0,0,0,0,0,0,0,0,0,0,0
385,129,-386,16746,52,0,0,0,0,0,0,0,0,0,0,0
386,129,-317,16757,253,0,0,0,0,0,0,0,0,0,0,0
387,129,-378,16592,48,0,0,0,0,0,0,0,0,0,0,0
388,129,-415,16665,57,0,0,0,0,0,0,0,0,0,0,0
389,129,-332,16669,56,0,0,0,0,0,0,0,0,0,0,0
390,129,-320,16644,156,0,0,0,0,0,0,0,0,0,0,0
391,129,-366,16734,44,0,0,0,0,0,0,0,0,0,0,0
392,129,-293,16690,58,0,0,0,0,0,0,0,0,0,0,0
393,129,-381,16684,179,0,0,0,0,0,0,0,0,0,0,0
394,129,-316,16726,222,0,0,0,0,0,0,0,0,0,0,0
395,129,-377,16610,144,0,0,0,0,0,0,0,0,0,0,0
396,129,-293,16735,103,0,0,0,0,0,0,0,0,0,0,0
397,129,-387,16675,-26,0,0,0,0,0,0,0,0,0,0,0
398,129,-275,16647,154,0,0,0,0,0,0,0,0,0,0,0
399,129,-293,16686,-11,0,0,0,0,0,0,0,0,0,0,0
400,129,-1058,16975,-1222,0,0,0,0,0,0,0,0,0,0,0
401,129,-226,16715,223,0,0,0,0,0,0,0,0,0,0,0
402,129,-284,16779,153,0,0,0,0,0,0,0,0,0,0,0
403,129,-260,16726,209,0,0,0,0,0,0,0,0,0,0,0
404,129,-257,16682,245,0,0,0,0,0,0,0,0,0,0,0
405,129,-243,16712,77,0,0,0,0,0,0,0,0,0,0,0
406,129,-243,16641,71,0,0,0,0,0,0,0,0,0,0,0
407,129,-310,16736,33,0,0,0,0,0,0,0,0,0,0,0
408,129,-251,16691,-26,0,0,0,0,0,0,0,0,0,0,0
409,129,-273,16625,64,0,0,0,0,0,0,0,0,0,0,0
410,129,-316,16688,134,0,0,0,0,0,0,0,0,0,0,0
411,129,-215,16639,-110,0,0,0,0,0,0,0,0,0,0,0
412,129,-267,16723,67,0,0,0,0,0,0,0,0,0,0,0
413,129,-218,16714,44,0,0,0,0,0,0,0,0,0,0,0
414,129,-215,16568,112,0,0,0,0,0,0,0,0,0,0,0
415,129,-242,16693,-72,0,0,0,0,0,0,0,0,0,0,0
416,129,-249,16693,-16,0,0,0,0,0,0,0,0,0,0,0
417,129,-274,16694,-52,0,0,0,0,0,0,0,0,0,0,0
418,129,-265,16720,161,0,0,0,0,0,0,0,0,0,0,0
419,129,-292,16740,57,0,0,0,0,0,0,0,0,0,0,0
420,129,-244,16661,23,0,0,0,0,0,0,0,0,0,0,0
421,129,-190,16659,63,0,0,0,0,0,0,0,0,0,0,0
422,129,-266,16657,24,0,0,0,0,0,0,0,0,0,0,0
423,129,-256,16691,83,0,0,0,0,0,0,0,0,0,0,0
424,129,-252,16674,127,0,0,0,0,0,0,0,0,0,0,0
425,129,-302,16688,86,0,0,0,0,0,0,0,0,0,0,0
426,129,-1,16666,242,0,0,0,0,0,0,0,0,0,0,0
427,129,-265,16763,76,0,0,0,0,0,0,0,0,0,0,0
428,129,-243,16720,91,0,0,0,0,0,0,0,0,0,0,0
429,129,-207,16604,-26,0,0,0,0,0,0,0,0,0,0,0
430,129,-348,16683,102,0,0,0,0,0,0,0,0,0,0,0
431,129,-314,16657,-31,0,0,0,0,0,0,0,0,0,0,0
432,129,-351,16649,61,0,0,0,0,0,0,0,0,0,0,0
433,129,-323,16730,84,0,0,0,0,0,0,0,0,0,0,0
434,129,-321,16778,87,0,0,0,0,0,0,0,0,0,0,0
435,129,-299,16706,43,0,0,0,0,0,0,0,0,0,0,0
436,129,-327,16660,152,0,0,0,0,0,0,0,0,0,0,0
437,129,-257,16627,34,0,0,0,0,0,0,0,0,0,0,0
438,129,-283,16680,5,0,0,0,0,0,0,0,0,0,0,0
439,129,-573,16684,346,0,0,0,0,0,0,0,0,0,0,0
440,129,-356,16705,136,0,0,0,0,0,0,0,0,0,0,0
441,129,-279,16678,-28,0,0,0,0,0,0,0,0,0,0,0
442,129,-336,16634,213,0,0,0,0,0,0,0,0,0,0,0
443,129,-237,16714,59,0,0,0,0,0,0,0,0,0,0,0
444,129,-345,16801,85,0,0,0,0,0,0,0,0,0,0,0
445,129,-333,16792,53,0,0,0,0,0,0,0,0,0,0,0
446,129,-354,16578,21,0,0,0,0,0,0,0,0,0,0,0
447,129,-351,16723,46,0,0,0,0,0,0,0,0,0,0,0
448,129,-752,16769,1224,0,0,0,0,0,0,0,0,0,0,0
449,129,-375,16738,90,0,0,0,0,0,0,0,0,0,0,0
450,129,-334,16748,108,0,0,0,0,0,0,0,0,0,0,0
451,129,-497,16663,16,0,0,0,0,0,0,0,0,0,0,0
452,129,-345,16794,313,0,0,0,0,0,0,0,0,0,0,0
453,129,-331,16664,160,0,0,0,0,0,0,0,0,0,0,0
454,129,-405,16593,158,0,0,0,0,0,0,0,0,0,0,0
455,129,-545,16718,677,0,0,0,0,0,0,0,0,0,0,0
456,129,312,16524,-1503,0,0,0,0,0,0,0,0,0,0,0
457,129,-343,16735,88,0,0,0,0,0,0,0,0,0,0,0
458,129,-173,16604,-198,0,0,0,0,0,0,0,0,0,0,0
459,129,-409,16704,259,0,0,0,0,0,0,0,0,0,0,0
460,129,-349,16695,-19,0,0,0,0,0,0,0,0,0,0,0
461,129,-312,16634,156,0,0,0,0,0,0,0,0,0,0,0
462,129,-477,16651,94,0,0,0,0,0,0,0,0,0,0,0
463,129,-471,16662,140,0,0,0,0,0,0,0,0,0,0,0
464,129,-363,16743,182,0,0,0,0,0,0,0,0,0,0,0
465,129,-488,16697,90,0,0,0,0,0,0,0,0,0,0,0
466,129,-433,16763,195,0,0,0,0,0,0,0,0,0,0,0
467,129,-295,16669,-294,0,0,0,0,0,0,0,0,0,0,0
468,129,-355,16671,157,0,0,0,0,0,0,0,0,0,0,0
469,129,-484,16666,152,0,0,0,0,0,0,0,0,0,0,0
470,129,-369,16619,197,0,0,0,0,0,0,0,0,0,0,0
471,129,-417,16647,56,0,0,0,0,0,0,0,0,0,0,0
472,129,-402,16678,91,0,0,0,0,0,0,0,0,0,0,0
473,129,-504,16729,154,0,0,0,0,0,0,0,0,0,0,0
474,129,-452,16667,186,0,0,0,0,0,0,0,0,0,0,0
475,129,-333,16661,84,0,0,0,0,0,0,0,0,0,0,0
476,129,-666,16832,267,0,0,0,0,0,0,0,0,0,0,0
477,129,-651,16739,62,0,0,0,0,0,0,0,0,0,0,0
478,129,-481,16611,145,0,0,0,0,0,0,0,0,0,0,0
479,129,-588,16631,326,0,0,0,0,0,0,0,0,0,0,0
480,129,155,16556,-212,0,0,0,0,0,0,0,0,0,0,0
481,129,-400,16780,84,0,0,0,0,0,0,0,0,0,0,0
482,129,-583,16683,153,0,0,0,0,0,0,0,0,0,0,0
483,129,-425,16623,246,0,0,0,0,0,0,0,0,0,0,0
484,129,-473,16578,247,0,0,0,0,0,0,0,0,0,0,0
485,129,-456,16675,220,0,0,0,0,0,0,0,0,0,0,0
486,129,-550,16698,83,0,0,0,0,0,0,0,0,0,0,0
487,129,-546,16614,250,0,0,0,0,0,0,0,0,0,0,0
488,129,-514,16633,341,0,0,0,0,0,0,0,0,0,0,0
489,129,-569,16748,307,0,0,0,0,0,0,0,0,0,0,0
490,129,-358,16712,481,0,0,0,0,0,0,0,0,0,0,0
491,129,-624,16694,266,0,0,0,0,0,0,0,0,0,0,0
492,129,-335,16646,353,0,0,0,0,0,0,0,0,0,0,0
493,129,-600,16767,217,0,0,0,0,0,0,0,0,0,0,0
494,129,-621,16585,443,0,0,0,0,0,0,0,0,0,0,0
495,129,-656,16714,326,0,0,0,0,0,0,0,0,0,0,0
496,129,-702,16677,435,0,0,0,0,0,0,0,0,0,0,0
497,129,-365,16658,587,0,0,0,0,0,0,0,0,0,0,0
498,129,-477,16673,611,0,0,0,0,0,0,0,0,0,0,0
499,129,-644,16643,575,0,0,0,0,0,0,0,0,0,0,0
500,129,-455,16602,595,0,0,0,0,0,0,0,0,0,0,0
501,129,-514,16703,815,0,0,0,0,0,0,0,0,0,0,0
502,129,-623,16580,692,0,0,0,0,0,0,0,0,0,0,0
503,129,-486,16678,759,0,0,0,0,0,0,0,0,0,0,0
504,129,-439,16340,932,0,0,0,0,0,0,0,0,0,0,0
505,129,-791,16481,769,0,0,0,0,0,0,0,0,0,0,0
506,129,-595,16461,1019,0,0,0,0,0,0,0,0,0,0,0
507,129,-511,16612,1134,0,0,0,0,0,0,0,0,0,0,0
508,129,-510,16410,1293,0,0,0,0,0,0,0,0,0,0,0
509,129,-730,16601,1366,0,0,0,0,0,0,0,0,0,0,0
510,129,-586,16649,1333,0,0,0,0,0,0,0,0,0,0,0
511,129,-477,16602,1404,0,0,0,0,0,0,0,0,0,0,0
512,129,-610,16378,1396,0,0,0,0,0,0,0,0,0,0,0
513,129,-577,16590,1568,0,0,0,0,0,0,0,0,0,0,0
514,129,-573,16564,1626,0,0,0,0,0,0,0,0,0,0,0
515,129,-432,16320,1785,0,0,0,0,0,0,0,0,0,0,0
516,129,-588,16468,1758,0,0,0,0,0,0,0,0,0,0,0
517,129,-791,16864,1690,0,0,0,0,0,0,0,0,0,0,0
518,129,-673,16577,1960,0,0,0,0,0,0,0,0,0,0,0
519,129,-877,16335,1987,0,0,0,0,0,0,0,0,0,0,0
520,129,-610,16114,2148,0,0,0,0,0,0,0,0,0,0,0
521,129,-625,16395,2259,0,0,0,0,0,0,0,0,0,0,0
522,129,-688,16203,2460,0,0,0,0,0,0,0,0,0,0,0
523,129,-910,16456,2302,0,0,0,0,0,0,0,0,0,0,0
524,129,-807,16580,2580,0,0,0,0,0,0,0,0,0,0,0
525,129,-889,16350,2814,0,0,0,0,0,0,0,0,0,0,0
526,129,-1055,16209,2747,0,0,0,0,0,0,0,0,0,0,0
527,129,-957,15934,2807,0,0,0,0,0,0,0,0,0,0,0
528,129,-847,16073,3060,0,0,0,0,0,0,0,0,0,0,0
529,129,-696,16162,3356,0,0,0,0,0,0,0,0,0,0,0
530,129,-1005,16137,3048,0,0,0,0,0,0,0,0,0,0,0
531,129,-1052,16106,3185,0,0,0,0,0,0,0,0,0,0,0
532,129,-971,16000,3701,0,0,0,0,0,0,0,0,0,0,0
533,129,-857,16230,3830,0,0,0,0,0,0,0,0,0,0,0
534,129,-794,16057,3899,0,0,0,0,0,0,0,0,0,0,0
535,129,-852,15937,3907,0,0,0,0,0,0,0,0,0,0,0
536,129,-1124,16109,3961,0,0,0,0,0,0,0,0,0,0,0
537,129,-865,16135,4239,0,0,0,0,0,0,0,0,0,0,0
538,129,-648,15931,4525,0,0,0,0,0,0,0,0,0,0,0
539,129,-845,15444,4601,0,0,0,0,0,0,0,0,0,0,0
540,129,-712,15144,4508,0,0,0,0,0,0,0,0,0,0,0
541,129,-1096,15038,4442,0,0,0,0,0,0,0,0,0,0,0
542,129,-863,15184,4954,0,0,0,0,0,0,0,0,0,0,0
543,129,-1307,15779,5112,0,0,0,0,0,0,0,0,0,0,0
544,129,-873,15543,5403,0,0,0,0,0,0,0,0,0,0,0
545,129,-869,15491,5455,0,0,0,0,0,0,0,0,0,0,0
546,129,-865,15164,5393,0,0,0,0,0,0,0,0,0,0,0
547,129,-824,15544,5791,0,0,0,0,0,0,0,0,0,0,0
548,129,-888,15478,5762,0,0,0,0,0,0,0,0,0,0,0
549,129,-945,14965,5834,0,0,0,0,0,0,0,0,0,0,0
550,129,-886,15098,6173,0,0,0,0,0,0,0,0,0,0,0
551,129,-1066,15029,6127,0,0,0,0,0,0,0,0,0,0,0
552,129,-1039,15145,6458,0,0,0,0,0,0,0,0,0,0,0
553,129,-1050,15097,6407,0,0,0,0,0,0,0,0,0,0,0
554,129,-967,14802,6593,0,0,0,0,0,0,0,0,0,0,0
555,129,-909,14617,6690,0,0,0,0,0,0,0,0,0,0,0
556,129,-1086,14524,6601,0,0,0,0,0,0,0,0,0,0,0
557,129,-1155,14561,6820,0,0,0,0,0,0,0,0,0,0,0
558,129,-1179,14604,7215,0,0,0,0,0,0,0,0,0,0,0
559,129,-1165,14500,7101,0,0,0,0,0,0,0,0,0,0,0
560,129,-1193,14430,7393,0,0,0,0,0,0,0,0,0,0,0
561,129,-869,14187,7363,0,0,0,0,0,0,0,0,0,0,0
562,129,-965,14147,7523,0,0,0,0,0,0,0,0,0,0,0
563,129,-845,13911,7762,0,0,0,0,0,0,0,0,0,0,0
564,129,-1117,14085,7944,0,0,0,0,0,0,0,0,0,0,0
565,129,-1291,14257,8008,0,0,0,0,0,0,0,0,0,0,0
566,129,-880,14019,8154,0,0,0,0,0,0,0,0,0,0,0
567,129,-658,13356,7996,0,0,0,0,0,0,0,0,0,0,0
568,129,-1126,13328,7960,0,0,0,0,0,0,0,0,0,0,0
569,129,-1129,13417,8351,0,0,0,0,0,0,0,0,0,0,0
570,129,-1253,13701,8316,0,0,0,0,0,0,0,0,0,0,0
571,129,-967,13721,8436,0,0,0,0,0,0,0,0,0,0,0
572,129,-1090,13464,8715,0,0,0,0,0,0,0,0,0,0,0
573,129,-1043,13387,8775,0,0,0,0,0,0,0,0,0,0,0
574,129,-1022,13194,8495,0,0,0,0,0,0,0,0,0,0,0
575,129,-1081,13243,8719,0,0,0,0,0,0,0,0,0,0,0
576,129,-936,13345,8986,0,0,0,0,0,0,0,0,0,0,0
577,129,-1016,13310,8890,0,0,0,0,0,0,0,0,0,0,0
578,129,-1212,13397,8859,0,0,0,0,0,0,0,0,0,0,0
579,129,-947,12905,8619,0,0,0,0,0,0,0,0,0,0,0
580,129,-1243,13256,8991,0,0,0,0,0,0,0,0,0,0,0
581,129,-1129,13461,9246,0,0,0,0,0,0,0,0,0,0,0
582,129,-1213,13166,8890,0,0,0,0,0,0,0,0,0,0,0
583,129,-1284,13074,8916,0,0,0,0,0,0,0,0,0,0,0
584,129,-1153,13208,8909,0,0,0,0,0,0,0,0,0,0,0
585,129,-924,12856,9142,0,0,0,0,0,0,0,0,0,0,0
586,129,-1223,13064,9041,0,0,0,0,0,0,0,0,0,0,0
587,129,-1467,13309,9118,0,0,0,0,0,0,0,0,0,0,0
588,129,-1134,13071,9006,0,0,0,0,0,0,0,0,0,0,0
589,129,-889,12752,9172,0,0,0,0,0,0,0,0,0,0,0
590,129,-830,12756,9306,0,0,0,0,0,0,0,0,0,0,0
591,129,-1239,13177,9246,0,0,0,0,0,0,0,0,0,0,0
592,129,-1171,12820,9261,0,0,0,0,0,0,0,0,0,0,0
593,129,-1565,12924,9227,0,0,0,0,0,0,0,0,0,0,0
594,129,-1420,12990,9299,0,0,0,0,0,0,0,0,0,0,0
595,129,-1148,12979,9399,0,0,0,0,0,0,0,0,0,0,0
596,129,-1075,12908,9772,0,0,0,0,0,0,0,0,0,0,0
597,129,-1093,12794,9879,0,0,0,0,0,0,0,0,0,0,0
598,129,-1453,12824,9601,0,0,0,0,0,0,0,0,0,0,0
599,129,-1305,12539,9178,0,0,0,0,0,0,0,0,0,0,0
600,129,-1469,12483,9439,0,0,0,0,0,0,0,0,0,0,0
601,129,-1408,12683,9822,0,0,0,0,0,0,0,0,0,0,0
602,129,-1846,12905,9870,0,0,0,0,0,0,0,0,0,0,0
603,129,-1450,12412,9637,0,0,0,0,0,0,0,0,0,0,0
604,129,-793,11979,9950,0,0,0,0,0,0,0,0,0,0,0
605,129,-1392,12502,10190,0,0,0,0,0,0,0,0,0,0,0
606,129,-1282,12299,9983,0,0,0,0,0,0,0,0,0,0,0
607,129,-1540,11904,9526,0,0,0,0,0,0,0,0,0,0,0
608,129,-1602,12324,10141,0,0,0,0,0,0,0,0,0,0,0
609,129,-1759,12267,10103,0,0,0,0,0,0,0,0,0,0,0
610,129,-1447,11969,9874,0,0,0,0,0,0,0,0,0,0,0
611,129,-1539,12102,10044,0,0,0,0,0,0,0,0,0,0,0
612,129,-1529,12009,10299,0,0,0,0,0,0,0,0,0,0,0
613,129,-1508,12054,10239,0,0,0,0,0,0,0,0,0,0,0
614,129,-1622,11947,10401,0,0,0,0,0,0,0,0,0,0,0
615,129,-1570,11984,10248,0,0,0,0,0,0,0,0,0,0,0
616,129,-1539,11950,10548,0,0,0,0,0,0,0,0,0,0,0
617,129,-1529,11800,10285,0,0,0,0,0,0,0,0,0,0,0
618,129,-1371,11658,10323,0,0,0,0,0,0,0,0,0,0,0
619,129,-1471,11774,10409,0,0,0,0,0,0,0,0,0,0,0
620,129,-1552,11685,10775,0,0,0,0,0,0,0,0,0,0,0
621,129,-1613,11871,11013,0,0,0,0,0,0,0,0,0,0,0
622,129,-1099,11442,10750,0,0,0,0,0,0,0,0,0,0,0
623,129,-1515,11334,10454,0,0,0,0,0,0,0,0,0,0,0
624,129,-1726,11631,10968,0,0,0,0,0,0,0,0,0,0,0
625,129,-1644,11463,10957,0,0,0,0,0,0,0,0,0,0,0
626,129,-1367,11461,10838,0,0,0,0,0,0,0,0,0,0,0
627,129,-1305,11200,10777,0,0,0,0,0,0,0,0,0,0,0
628,129,-1413,11115,10904,0,0,0,0,0,0,0,0,0,0,0
629,129,-1548,11147,10793,0,0,0,0,0,0,0,0,0,0,0
630,129,-1537,11281,11176,0,0,0,0,0,0,0,0,0,0,0
631,129,-1551,11125,11198,0,0,0,0,0,0,0,0,0,0,0
632,129,-1315,10846,11278,0,0,0,0,0,0,0,0,0,0,0
633,129,-1272,10744,11008,0,0,0,0,0,0,0,0,0,0,0
634,129,-1491,10769,11197,0,0,0,0,0,0,0,0,0,0,0
635,129,-1488,11077,11562,0,0,0,0,0,0,0,0,0,0,0
636,129,-1682,11003,11739,0,0,0,0,0,0,0,0,0,0,0
637,129,-1475,10736,11533,0,0,0,0,0,0,0,0,0,0,0
638,129,-1423,10490,11263,0,0,0,0,0,0,0,0,0,0,0
639,129,-1485,10413,11459,0,0,0,0,0,0,0,0,0,0,0
640,129,-1684,10576,12074,0,0,0,0,0,0,0,0,0,0,0
641,129,-1604,10727,12138,0,0,0,0,0,0,0,0,0,0,0
642,129,-1429,10172,11590,0,0,0,0,0,0,0,0,0,0,0
643,129,-1486,10171,11713,0,0,0,0,0,0,0,0,0,0,0
644,129,-1609,10264,11820,0,0,0,0,0,0,0,0,0,0,0
645,129,-1420,10248,11978,0,0,0,0,0,0,0,0,0,0,0
646,129,-1696,10151,11572,0,0,0,0,0,0,0,0,0,0,0
647,129,-1410,9801,11646,0,0,0,0,0,0,0,0,0,0,0
648,129,-1586,10116,12198,0,0,0,0,0,0,0,0,0,0,0
649,129,-1628,9942,12300,0,0,0,0,0,0,0,0,0,0,0
650,129,-1710,9961,11933,0,0,0,0,0,0,0,0,0,0,0
651,129,-1467,9735,12114,0,0,0,0,0,0,0,0,0,0,0
652,129,-1448,9755,11967,0,0,0,0,0,0,0,0,0,0,0
653,129,-1715,9798,12381,0,0,0,0,0,0,0,0,0,0,0
654,129,-1493,9661,12335,0,0,0,0,0,0,0,0,0,0,0
655,129,-1378,9580,12451,0,0,0,0,0,0,0,0,0,0,0
656,129,-1515,9511,12547,0,0,0,0,0,0,0,0,0,0,0
657,129,-1697,9526,12500,0,0,0,0,0,0,0,0,0,0,0
658,129,-1746,9383,12319,0,0,0,0,0,0,0,0,0,0,0
659,129,-1501,9222,11966,0,0,0,0,0,0,0,0,0,0,0
660,129,-1465,9223,12482,0,0,0,0,0,0,0,0,0,0,0
661,129,-1512,9292,12588,0,0,0,0,0,0,0,0,0,0,0
662,129,-1436,9096,12717,0,0,0,0,0,0,0,0,0,0,0
663,129,-1562,9034,12697,0,0,0,0,0,0,0,0,0,0,0
664,129,-1535,8962,12537,0,0,0,0,0,0,0,0,0,0,0
665,129,-1587,8912,12875,0,0,0,0,0,0,0,0,0,0,0
666,129,-1608,9024,13106,0,0,0,0,0,0,0,0,0,0,0
667,129,-1511,8723,12982,0,0,0,0,0,0,0,0,0,0,0
668,129,-1406,8533,12796,0,0,0,0,0,0,0,0,0,0,0
669,129,-1660,8515,12612,0,0,0,0,0,0,0,0,0,0,0
670,129,-1453,8650,12764,0,0,0,0,0,0,0,0,0,0,0
671,129,-1559,8481,12865,0,0,0,0,0,0,0,0,0,0,0
672,129,-1630,8533,12913,0,0,0,0,0,0,0,0,0,0,0
673,129,-1711,8454,13218,0,0,0,0,0,0,0,0,0,0,0
674,129,-1651,8261,13369,0,0,0,0,0,0,0,0,0,0,0
675,129,-1358,8190,13074,0,0,0,0,0,0,0,0,0,0,0
676,129,-1538,8216,13318,0,0,0,0,0,0,0,0,0,0,0
677,129,-1454,8130,13340,0,0,0,0,0,0,0,0,0,0,0
678,129,-1572,8049,13454,0,0,0,0,0,0,0,0,0,0,0
679,129,-1306,7738,13298,0,0,0,0,0,0,0,0,0,0,0
680,129,-1555,7652,13538,0,0,0,0,0,0,0,0,0,0,0
681,129,-1545,7600,13515,0,0,0,0,0,0,0,0,0,0,0
682,129,-1186,7382,13254,0,0,0,0,0,0,0,0,0,0,0
683,129,-1222,7385,13331,0,0,0,0,0,0,0,0,0,0,0
684,129,-1573,7382,13349,0,0,0,0,0,0,0,0,0,0,0
685,129,-1306,7477,13863,0,0,0,0,0,0,0,0,0,0,0
686,129,-1223,7260,13762,0,0,0,0,0,0,0,0,0,0,0
687,129,-1202,7158,14272,0,0,0,0,0,0,0,0,0,0,0
688,129,-1429,6994,13674,0,0,0,0,0,0,0,0,0,0,0
689,129,-1293,6894,13479,0,0,0,0,0,0,0,0,0,0,0
690,129,-1218,6839,13895,0,0,0,0,0,0,0,0,0,0,0
691,129,-1196,6720,14004,0,0,0,0,0,0,0,0,0,0,0
692,129,-1121,6806,13513,0,0,0,0,0,0,0,0,0,0,0
693,129,-1235,6543,14182,0,0,0,0,0,0,0,0,0,0,0
694,129,-1056,6588,13811,0,0,0,0,0,0,0,0,0,0,0
695,129,-1039,6554,13559,0,0,0,0,0,0,0,0,0,0,0
696,129,-1294,6434,13920,0,0,0,0,0,0,0,0,0,0,0
697,129,-1461,6538,14398,0,0,0,0,0,0,0,0,0,0,0
698,129,-952,6205,14733,0,0,0,0,0,0,0,0,0,0,0
699,129,-1029,6181,13783,0,0,0,0,0,0,0,0,0,0,0
700,129,-939,6091,14217,0,0,0,0,0,0,0,0,0,0,0
701,129,-1303,6138,13805,0,0,0,0,0,0,0,0,0,0,0
702,129,-1308,5978,15102,0,0,0,0,0,0,0,0,0,0,0
703,129,-820,5866,13944,0,0,0,0,0,0,0,0,0,0,0
704,129,-997,5783,14441,0,0,0,0,0,0,0,0,0,0,0
705,129,-884,5598,13993,0,0,0,0,0,0,0,0,0,0,0
706,129,-1097,5621,14108,0,0,0,0,0,0,0,0,0,0,0
707,129,-1067,5742,14555,0,0,0,0,0,0,0,0,0,0,0
708,129,-941,5511,14780,0,0,0,0,0,0,0,0,0,0,0
709,129,-1196,5578,14686,0,0,0,0,0,0,0,0,0,0,0
710,129,-1076,5272,14750,0,0,0,0,0,0,0,0,0,0,0
711,129,-687,5131,13499,0,0,0,0,0,0,0,0,0,0,0
712,129,-727,4949,14399,0,0,0,0,0,0,0,0,0,0,0
713,129,-1284,5207,14705,0,0,0,0,0,0,0,0,0,0,0
714,129,-629,4553,14734,0,0,0,0,0,0,0,0,0,0,0
715,129,-861,4770,14214,0,0,0,0,0,0,0,0,0,0,0
716,129,-844,4743,14480,0,0,0,0,0,0,0,0,0,0,0
717,129,-881,4669,14800,0,0,0,0,0,0,0,0,0,0,0
718,129,-1006,4617,14512,0,0,0,0,0,0,0,0,0,0,0
719,129,-927,4539,14600,0,0,0,0,0,0,0,0,0,0,0
720,129,-840,4571,14608,0,0,0,0,0,0,0,0,0,0,0
721,129,-1123,4675,14797,0,0,0,0,0,0,0,0,0,0,0
722,129,-958,4250,15382,0,0,0,0,0,0,0,0,0,0,0
723,129,-726,4288,14171,0,0,0,0,0,0,0,0,0,0,0
724,129,-887,3880,15349,0,0,0,0,0,0,0,0,0,0,0
725,129,-642,4044,14425,0,0,0,0,0,0,0,0,0,0,0
726,129,-1057,4403,14521,0,0,0,0,0,0,0,0,0,0,0
727,129,-1421,4352,14758,0,0,0,0,0,0,0,0,0,0,0
728,129,-1111,3999,14848,0,0,0,0,0,0,0,0,0,0,0
729,129,-832,4002,15327,0,0,0,0,0,0,0,0,0,0,0
730,129,-897,3971,14371,0,0,0,0,0,0,0,0,0,0,0
731,129,-885,3736,15300,0,0,0,0,0,0,0,0,0,0,0
732,129,-582,3582,14979,0,0,0,0,0,0,0,0,0,0,0
733,129,-1122,3847,14499,0,0,0,0,0,0,0,0,0,0,0
734,129,-861,3410,15461,0,0,0,0,0,0,0,0,0,0,0
735,129,-442,3453,15097,0,0,0,0,0,0,0,0,0,0,0
736,129,-544,3379,14625,0,0,0,0,0,0,0,0,0,0,0
737,129,-1149,3584,14698,0,0,0,0,0,0,0,0,0,0,0
738,129,-646,3019,15331,0,0,0,0,0,0,0,0,0,0,0
739,129,-688,3045,15078,0,0,0,0,0,0,0,0,0,0,0
740,129,-911,3299,14790,0,0,0,0,0,0,0,0,0,0,0
741,129,-475,2870,14907,0,0,0,0,0,0,0,0,0,0,0
742,129,-1103,3054,14845,0,0,0,0,0,0,0,0,0,0,0
743,129,-829,2879,15118,0,0,0,0,0,0,0,0,0,0,0
744,129,-585,2793,15112,0,0,0,0,0,0,0,0,0,0,0
745,129,-700,2632,15135,0,0,0,0,0,0,0,0,0,0,0
746,129,-742,2857,14486,0,0,0,0,0,0,0,0,0,0,0
747,129,-535,2543,14317,0,0,0,0,0,0,0,0,0,0,0
748,129,-369,2513,16027,0,0,0,0,0,0,0,0,0,0,0
749,129,-996,2469,14908,0,0,0,0,0,0,0,0,0,0,0
750,129,-578,2452,15029,0,0,0,0,0,0,0,0,0,0,0
751,129,-970,2297,15584,0,0,0,0,0,0,0,0,0,0,0
752,129,-765,1871,15598,0,0,0,0,0,0,0,0,0,0,0
753,129,-296,2249,15186,0,0,0,0,0,0,0,0,0,0,0
754,129,-516,2163,14655,0,0,0,0,0,0,0,0,0,0,0
755,129,-552,2090,15295,0,0,0,0,0,0,0,0,0,0,0
756,129,-644,2083,15548,0,0,0,0,0,0,0,0,0,0,0
757,129,-482,2055,15032,0,0,0,0,0,0,0,0,0,0,0
758,129,-383,1994,14677,0,0,0,0,0,0,0,0,0,0,0
759,129,-537,1944,15178,0,0,0,0,0,0,0,0,0,0,0
760,129,-842,2173,15428,0,0,0,0,0,0,0,0,0,0,0
761,129,-292,1691,15087,0,0,0,0,0,0,0,0,0,0,0
762,129,-229,1521,15529,0,0,0,0,0,0,0,0,0,0,0
763,129,-157,1729,14851,0,0,0,0,0,0,0,0,0,0,0
764,129,-362,1556,15034,0,0,0,0,0,0,0,0,0,0,0
765,129,-259,1439,15094,0,0,0,0,0,0,0,0,0,0,0
766,129,-834,1581,15366,0,0,0,0,0,0,0,0,0,0,0
767,129,-75,1544,15166,0,0,0,0,0,0,0,0,0,0,0
768,129,-61,1369,15096,0,0,0,0,0,0,0,0,0,0,0
769,129,-59,1271,15075,0,0,0,0,0,0,0,0,0,0,0
770,129,-58,1172,15350,0,0,0,0,0,0,0,0,0,0,0
771,129,-151,1127,15756,0,0,0,0,0,0,0,0,0,0,0
772,129,-726,1173,16019,0,0,0,0,0,0,0,0,0,0,0
773,129,-76,1125,14366,0,0,0,0,0,0,0,0,0,0,0
774,129,-356,812,15199,0,0,0,0,0,0,0,0,0,0,0
775,129,-562,1240,15037,0,0,0,0,0,0,0,0,0,0,0
776,129,-895,1191,15188,0,0,0,0,0,0,0,0,0,0,0
777,129,-175,321,15717,0,0,0,0,0,0,0,0,0,0,0
778,129,-151,204,16028,0,0,0,0,0,0,0,0,0,0,0
779,129,297,381,15175,0,0,0,0,0,0,0,0,0,0,0
780,129,-36,444,14995,0,0,0,0,0,0,0,0,0,0,0
781,129,-650,398,15402,0,0,0,0,0,0,0,0,0,0,0
782,129,-593,191,16082,0,0,0,0,0,0,0,0,0,0,0
783,129,237,162,14416,0,0,0,0,0,0,0,0,0,0,0
784,129,-233,185,14658,0,0,0,0,0,0,0,0,0,0,0
785,129,-20,161,15262,0,0,0,0,0,0,0,0,0,0,0
786,129,-152,29,15275,0,0,0,0,0,0,0,0,0,0,0
787,129,-605,-41,15219,0,0,0,0,0,0,0,0,0,0,0
788,129,-231,-140,15060,0,0,0,0,0,0,0,0,0,0,0
789,129,-41,-156,14783,0,0,0,0,0,0,0,0,0,0,0
790,129,-501,180,15266,0,0,0,0,0,0,0,0,0,0,0
791,129,-299,-163,15137,0,0,0,0,0,0,0,0,0,0,0
792,129,-343,-168,14629,0,0,0,0,0,0,0,0,0,0,0
793,129,-211,-109,15111,0,0,0,0,0,0,0,0,0,0,0
794,129,-575,-351,15611,0,0,0,0,0,0,0,0,0,0,0
795,129,-341,-387,15628,0,0,0,0,0,0,0,0,0,0,0
796,129,-247,-299,14983,0,0,0,0,0,0,0,0,0,0,0
797,129,-649,134,14630,0,0,0,0,0,0,0,0,0,0,0
798,129,-494,-656,15759,0,0,0,0,0,0,0,0,0,0,0
799,129,7,-801,15450,0,0,0,0,0,0,0,0,0,0,0
800,129,-51,-647,15034,0,0,0,0,0,0,0,0,0,0,0
801,129,-340,-554,14975,0,0,0,0,0,0,0,0,0,0,0
802,129,-12,-872,15391,0,0,0,0,0,0,0,0,0,0,0
803,129,-2,-672,14892,0,0,0,0,0,0,0,0,0,0,0
804,129,-304,-870,15104,0,0,0,0,0,0,0,0,0,0,0
805,129,-692,-444,14856,0,0,0,0,0,0,0,0,0,0,0
806,129,-120,-1207,15508,0,0,0,0,0,0,0,0,0,0,0
807,129,-141,-595,14034,0,0,0,0,0,0,0,0,0,0,0
808,129,-285,-862,14473,0,0,0,0,0,0,0,0,0,0,0
809,129,-338,-1065,14870,0,0,0,0,0,0,0,0,0,0,0
810,129,-828,-893,15345,0,0,0,0,0,0,0,0,0,0,0
811,129,-341,-1820,15801,0,0,0,0,0,0,0,0,0,0,0
812,129,92,-1851,15379,0,0,0,0,0,0,0,0,0,0,0
813,129,-302,-1397,14755,0,0,0,0,0,0,0,0,0,0,0
814,129,-187,-1978,15344,0,0,0,0,0,0,0,0,0,0,0
815,129,-163,-1615,14647,0,0,0,0,0,0,0,0,0,0,0
816,129,-428,-2056,15098,0,0,0,0,0,0,0,0,0,0,0
817,129,7,-2472,15645,0,0,0,0,0,0,0,0,0,0,0
818,129,-316,-1817,15464,0,0,0,0,0,0,0,0,0,0,0
819,129,-280,-1967,14763,0,0,0,0,0,0,0,0,0,0,0
820,129,-518,-2197,15611,0,0,0,0,0,0,0,0,0,0,0
821,129,-412,-2027,14543,0,0,0,0,0,0,0,0,0,0,0
822,129,-292,-2499,15337,0,0,0,0,0,0,0,0,0,0,0
823,129,-151,-2996,15817,0,0,0,0,0,0,0,0,0,0,0
824,129,-503,-2044,14580,0,0,0,0,0,0,0,0,0,0,0
825,129,-211,-2324,14397,0,0,0,0,0,0,0,0,0,0,0
826,129,3,-2682,14366,0,0,0,0,0,0,0,0,0,0,0
827,129,-263,-2637,14373,0,0,0,0,0,0,0,0,0,0,0
828,129,-331,-2834,15113,0,0,0,0,0,0,0,0,0,0,0
829,129,-187,-2837,15075,0,0,0,0,0,0,0,0,0,0,0
830,129,-87,-2736,14528,0,0,0,0,0,0,0,0,0,0,0
831,129,-466,-2859,15261,0,0,0,0,0,0,0,0,0,0,0
832,129,-172,-2746,15030,0,0,0,0,0,0,0,0,0,0,0
833,129,-89,-2630,14851,0,0,0,0,0,0,0,0,0,0,0
834,129,-154,-2623,14520,0,0,0,0,0,0,0,0,0,0,0
835,129,-479,-2707,15219,0,0,0,0,0,0,0,0,0,0,0
836,129,-186,-2687,14777,0,0,0,0,0,0,0,0,0,0,0
837,129,-117,-2669,14806,0,0,0,0,0,0,0,0,0,0,0
838,129,-211,-2605,14987,0,0,0,0,0,0,0,0,0,0,0
839,129,-351,-2580,14940,0,0,0,0,0,0,0,0,0,0,0
840,129,-593,-2602,15290,0,0,0,0,0,0,0,0,0,0,0
841,129,-379,-2575,14932,0,0,0,0,0,0,0,0,0,0,0
842,129,-219,-2425,14831,0,0,0,0,0,0,0,0,0,0,0
843,129,-320,-2533,15003,0,0,0,0,0,0,0,0,0,0,0
844,129,-316,-2584,14832,0,0,0,0,0,0,0,0,0,0,0
845,129,-387,-2514,15162,0,0,0,0,0,0,0,0,0,0,0
846,129,-266,-2283,14944,0,0,0,0,0,0,0,0,0,0,0
847,129,-412,-2278,15174,0,0,0,0,0,0,0,0,0,0,0
848,129,-353,-2122,15078,0,0,0,0,0,0,0,0,0,0,0
849,129,-502,-2241,15487,0,0,0,0,0,0,0,0,0,0,0
850,129,-435,-2343,15257,0,0,0,0,0,0,0,0,0,0,0
851,129,-154,-2280,15007,0,0,0,0,0,0,0,0,0,0,0
852,129,-329,-2298,14705,0,0,0,0,0,0,0,0,0,0,0
853,129,-280,-2360,14919,0,0,0,0,0,0,0,0,0,0,0
854,129,-396,-2306,15048,0,0,0,0,0,0,0,0,0,0,0
855,129,-415,-2304,15108,0,0,0,0,0,0,0,0,0,0,0
856,129,-531,-2196,14980,0,0,0,0,0,0,0,0,0,0,0
857,129,-438,-2210,14855,0,0,0,0,0,0,0,0,0,0,0
858,129,-191,-2330,14861,0,0,0,0,0,0,0,0,0,0,0
859,129,-420,-2189,14935,0,0,0,0,0,0,0,0,0,0,0
860,129,-368,-2237,15227,0,0,0,0,0,0,0,0,0,0,0
861,129,-407,-2226,15175,0,0,0,0,0,0,0,0,0,0,0
862,129,-370,-2165,15056,0,0,0,0,0,0,0,0,0,0,0
863,129,-598,-2184,14859,0,0,0,0,0,0,0,0,0,0,0
864,129,-530,-2222,15007,0,0,0,0,0,0,0,0,0,0,0
865,129,-391,-2215,14761,0,0,0,0,0,0,0,0,0,0,0
866,129,-364,-2249,14991,0,0,0,0,0,0,0,0,0,0,0
867,129,-312,-2140,14839,0,0,0,0,0,0,0,0,0,0,0
868,129,-436,-2156,15257,0,0,0,0,0,0,0,0,0,0,0
869,129,-474,-2285,15267,0,0,0,0,0,0,0,0,0,0,0
870,129,-549,-2143,15160,0,0,0,0,0,0,0,0,0,0,0
871,129,-514,-2011,14960,0,0,0,0,0,0,0,0,0,0,0
872,129,-457,-2118,14786,0,0,0,0,0,0,0,0,0,0,0
873,129,-521,-2157,15146,0,0,0,0,0,0,0,0,0,0,0
874,129,-377,-2167,15170,0,0,0,0,0,0,0,0,0,0,0
875,129,-286,-2161,15021,0,0,0,0,0,0,0,0,0,0,0
876,129,-318,-2072,14914,0,0,0,0,0,0,0,0,0,0,0
877,129,-351,-2093,14953,0,0,0,0,0,0,0,0,0,0,0
878,129,-482,-2167,15174,0,0,0,0,0,0,0,0,0,0,0
879,129,-435,-2123,14978,0,0,0,0,0,0,0,0,0,0,0
880,129,-453,-2161,15167,0,0,0,0,0,0,0,0,0,0,0
881,129,-496,-2129,14845,0,0,0,0,0,0,0,0,0,0,0
882,129,-481,-2161,15178,0,0,0,0,0,0,0,0,0,0,0
883,129,-364,-2204,15197,0,0,0,0,0,0,0,0,0,0,0
884,129,-382,-2027,14985,0,0,0,0,0,0,0,0,0,0,0
885,129,-663,-2172,15212,0,0,0,0,0,0,0,0,0,0,0
886,129,-399,-2094,14924,0,0,0,0,0,0,0,0,0,0,0
887,129,-441,-2150,15145,0,0,0,0,0,0,0,0,0,0,0
888,129,-575,-2214,15157,0,0,0,0,0,0,0,0,0,0,0
889,129,-448,-2100,14790,0,0,0,0,0,0,0,0,0,0,0
890,129,-213,-2104,15124,0,0,0,0,0,0,0,0,0,0,0
891,129,-423,-2030,15053,0,0,0,0,0,0,0,0,0,0,0
892,129,-379,-2108,15340,0,0,0,0,0,0,0,0,0,0,0
893,129,-371,-2066,15205,0,0,0,0,0,0,0,0,0,0,0
894,129,-481,-2066,14980,0,0,0,0,0,0,0,0,0,0,0
895,129,-581,-2007,14843,0,0,0,0,0,0,0,0,0,0,0
896,129,-425,-2017,15189,0,0,0,0,0,0,0,0,0,0,0
897,129,-487,-1950,14869,0,0,0,0,0,0,0,0,0,0,0
898,129,-454,-2064,15377,0,0,0,0,0,0,0,0,0,0,0
899,129,-333,-2057,15111,0,0,0,0,0,0,0,0,0,0,0
900,129,-315,-2109,15133,0,0,0,0,0,0,0,0,0,0,0
901,129,-423,-1992,15001,0,0,0,0,0,0,0,0,0,0,0
902,129,-534,-2140,15342,0,0,0,0,0,0,0,0,0,0,0
903,129,-460,-2019,15024,0,0,0,0,0,0,0,0,0,0,0
904,129,-477,-1799,14958,0,0,0,0,0,0,0,0,0,0,0
905,129,-360,-1952,15052,0,0,0,0,0,0,0,0,0,0,0
906,129,-512,-1982,15054,0,0,0,0,0,0,0,0,0,0,0
907,129,-246,-1893,14984,0,0,0,0,0,0,0,0,0,0,0
908,129,-339,-1979,15102,0,0,0,0,0,0,0,0,0,0,0
909,129,-448,-1958,15207,0,0,0,0,0,0,0,0,0,0,0
910,129,-427,-1960,15065,0,0,0,0,0,0,0,0,0,0,0
911,129,-410,-1923,15154,0,0,0,0,0,0,0,0,0,0,0
912,129,-371,-1856,14975,0,0,0,0,0,0,0,0,0,0,0
913,129,-554,-1790,15049,0,0,0,0,0,0,0,0,0,0,0
914,129,-452,-1676,14750,0,0,0,0,0,0,0,0,0,0,0
915,129,-459,-1791,15210,0,0,0,0,0,0,0,0,0,0,0
916,129,-548,-1945,15419,0,0,0,0,0,0,0,0,0,0,0
917,129,-261,-1622,15129,0,0,0,0,0,0,0,0,0,0,0
918,129,-211,-1630,14874,0,0,0,0,0,0,0,0,0,0,0
919,129,-385,-1590,14856,0,0,0,0,0,0,0,0,0,0,0
920,129,-446,-1723,15247,0,0,0,0,0,0,0,0,0,0,0
921,129,-472,-1813,15410,0,0,0,0,0,0,0,0,0,0,0
922,129,-374,-1721,15042,0,0,0,0,0,0,0,0,0,0,0
923,129,-383,-1594,14926,0,0,0,0,0,0,0,0,0,0,0
924,129,-453,-1452,15064,0,0,0,0,0,0,0,0,0,0,0
925,129,-405,-1576,14972,0,0,0,0,0,0,0,0,0,0,0
926,129,-326,-1680,14963,0,0,0,0,0,0,0,0,0,0,0
927,129,-471,-1705,15209,0,0,0,0,0,0,0,0,0,0,0
928,129,-486,-1617,15360,0,0,0,0,0,0,0,0,0,0,0
929,129,-361,-1600,15120,0,0,0,0,0,0,0,0,0,0,0
930,129,-169,-1622,14934,0,0,0,0,0,0,0,0,0,0,0
931,129,-230,-1505,14925,0,0,0,0,0,0,0,0,0,0,0
932,129,-301,-1613,15158,0,0,0,0,0,0,0,0,0,0,0
933,129,-418,-1536,15423,0,0,0,0,0,0,0,0,0,0,0
934,129,-597,-1577,15375,0,0,0,0,0,0,0,0,0,0,0
935,129,-170,-1582,14867,0,0,0,0,0,0,0,0,0,0,0
936,129,-256,-1647,14849,0,0,0,0,0,0,0,0,0,0,0
937,129,-223,-1479,14915,0,0,0,0,0,0,0,0,0,0,0
938,129,-487,-1601,15382,0,0,0,0,0,0,0,0,0,0,0
939,129,-386,-1599,15251,0,0,0,0,0,0,0,0,0,0,0
940,129,-195,-1498,15033,0,0,0,0,0,0,0,0,0,0,0
941,129,-144,-1599,15105,0,0,0,0,0,0,0,0,0,0,0
942,129,-258,-1359,15096,0,0,0,0,0,0,0,0,0,0,0
943,129,-296,-1333,15195,0,0,0,0,0,0,0,0,0,0,0
944,129,-131,-1524,15183,0,0,0,0,0,0,0,0,0,0,0
945,129,-175,-1564,15556,0,0,0,0,0,0,0,0,0,0,0
946,129,-316,-1474,15423,0,0,0,0,0,0,0,0,0,0,0
947,129,-482,-1403,15108,0,0,0,0,0,0,0,0,0,0,0
948,129,-430,-1275,15078,0,0,0,0,0,0,0,0,0,0,0
949,129,-221,-1308,14937,0,0,0,0,0,0,0,0,0,0,0
950,129,-223,-1364,15024,0,0,0,0,0,0,0,0,0,0,0
951,129,-195,-1449,15219,0,0,0,0,0,0,0,0,0,0,0
952,129,-255,-1351,15048,0,0,0,0,0,0,0,0,0,0,0
953,129,-180,-1330,14835,0,0,0,0,0,0,0,0,0,0,0
954,129,-60,-1265,15075,0,0,0,0,0,0,0,0,0,0,0
955,129,-150,-1252,15088,0,0,0,0,0,0,0,0,0,0,0
956,129,-381,-1417,15537,0,0,0,0,0,0,0,0,0,0,0
957,129,-310,-1219,15158,0,0,0,0,0,0,0,0,0,0,0
958,129,-283,-1240,14933,0,0,0,0,0,0,0,0,0,0,0
959,129,-240,-1275,14975,0,0,0,0,0,0,0,0,0,0,0
960,129,-267,-1202,15253,0,0,0,0,0,0,0,0,0,0,0
961,129,-246,-1219,15343,0,0,0,0,0,0,0,0,0,0,0
962,129,-158,-1182,15065,0,0,0,0,0,0,0,0,0,0,0
963,129,-66,-1254,15077,0,0,0,0,0,0,0,0,0,0,0
964,129,-236,-1140,14972,0,0,0,0,0,0,0,0,0,0,0
965,129,-400,-1207,15395,0,0,0,0,0,0,0,0,0,0,0
966,129,-211,-1185,15128,0,0,0,0,0,0,0,0,0,0,0
967,129,-230,-1246,15507,0,0,0,0,0,0,0,0,0,0,0
968,129,-108,-1013,14695,0,0,0,0,0,0,0,0,0,0,0
969,129,-212,-1094,15393,0,0,0,0,0,0,0,0,0,0,0
970,129,-116,-1144,15213,0,0,0,0,0,0,0,0,0,0,0
971,129,-258,-1073,15178,0,0,0,0,0,0,0,0,0,0,0
972,129,-308,-1044,15280,0,0,0,0,0,0,0,0,0,0,0
973,129,-144,-1058,15178,0,0,0,0,0,0,0,0,0,0,0
974,129,119,-1192,15182,0,0,0,0,0,0,0,0,0,0,0
975,129,-233,-1101,15174,0,0,0,0,0,0,0,0,0,0,0
976,129,-235,-1187,15321,0,0,0,0,0,0,0,0,0,0,0
977,129,-254,-1120,15166,0,0,0,0,0,0,0,0,0,0,0
978,129,-305,-1138,15543,0,0,0,0,0,0,0,0,0,0,0
979,129,-38,-1089,14905,0,0,0,0,0,0,0,0,0,0,0
980,129,-102,-998,14951,0,0,0,0,0,0,0,0,0,0,0
981,129,-154,-934,15151,0,0,0,0,0,0,0,0,0,0,0
982,129,-206,-1081,15563,0,0,0,0,0,0,0,0,0,0,0
983,129,-250,-1065,15207,0,0,0,0,0,0,0,0,0,0,0
984,129,-147,-1093,15200,0,0,0,0,0,0,0,0,0,0,0
985,129,-142,-894,15066,0,0,0,0,0,0,0,0,0,0,0
986,129,-240,-970,15260,0,0,0,0,0,0,0,0,0,0,0
987,129,-227,-953,14980,0,0,0,0,0,0,0,0,0,0,0
988,129,-150,-1024,15298,0,0,0,0,0,0,0,0,0,0,0
989,129,-270,-1137,15391,0,0,0,0,0,0,0,0,0,0,0
990,129,-117,-939,15255,0,0,0,0,0,0,0,0,0,0,0
991,129,-248,-889,15085,0,0,0,0,0,0,0,0,0,0,0
992,129,-143,-941,15457,0,0,0,0,0,0,0,0,0,0,0
993,129,-165,-880,15253,0,0,0,0,0,0,0,0,0,0,0
994,129,-77,-935,15066,0,0,0,0,0,0,0,0,0,0,0
995,129,-347,-937,15147,0,0,0,0,0,0,0,0,0,0,0
996,129,-163,-1004,15336,0,0,0,0,0,0,0,0,0,0,0
997,129,16,-977,14933,0,0,0,0,0,0,0,0,0,0,0
998,129,-159,-872,15228,0,0,0,0,0,0,0,0,0,0,0
999,129,-326,-921,15177,0,0,0,0,0,0,0,0,0,0,0
1000,129,-196,-825,15240,0,0,0,0,0,0,0,0,0,0,0
1001,129,-130,-804,15081,0,0,0,0,0,0,0,0,0,0,0
1002,129,-579,-601,15527,0,0,0,0,0,0,0,0,0,0,0
1003,129,-53,-838,14896,0,0,0,0,0,0,0,0,0,0,0
1004,129,16,-881,15308,0,0,0,0,0,0,0,0,0,0,0
1005,129,35,-903,15130,0,0,0,0,0,0,0,0,0,0,0
1006,129,-181,-719,15053,0,0,0,0,0,0,0,0,0,0,0
1007,129,-208,-705,15161,0,0,0,0,0,0,0,0,0,0,0
1008,129,133,-713,15335,0,0,0,0,0,0,0,0,0,0,0
1009,129,345,-658,14633,0,0,0,0,0,0,0,0,0,0,0
1010,129,-3,-562,15333,0,0,0,0,0,0,0,0,0,0,0
1011,129,174,-621,15021,0,0,0,0,0,0,0,0,0,0,0
1012,129,136,-523,15121,0,0,0,0,0,0,0,0,0,0,0
1013,129,64,-465,15219,0,0,0,0,0,0,0,0,0,0,0
1014,129,-83,-468,15421,0,0,0,0,0,0,0,0,0,0,0
1015,129,-141,-457,15432,0,0,0,0,0,0,0,0,0,0,0
1016,129,24,-345,15389,0,0,0,0,0,0,0,0,0,0,0
1017,129,100,-314,15047,0,0,0,0,0,0,0,0,0,0,0
1018,129,4,-338,15229,0,0,0,0,0,0,0,0,0,0,0
1019,129,-4,-318,15177,0,0,0,0,0,0,0,0,0,0,0
1020,129,384,-504,15274,0,0,0,0,0,0,0,0,0,0,0
1021,129,440,-399,15148,0,0,0,0,0,0,0,0,0,0,0
1022,129,-56,-229,15164,0,0,0,0,0,0,0,0,0,0,0
1023,129,532,-796,14612,0,0,0,0,0,0,0,0,0,0,0
1024,129,-419,-67,15456,0,0,0,0,0,0,0,0,0,0,0
1025,129,-151,-92,15414,0,0,0,0,0,0,0,0,0,0,0
1026,129,164,-50,15246,0,0,0,0,0,0,0,0,0,0,0
1027,129,23,-161,15219,0,0,0,0,0,0,0,0,0,0,0
1028,129,113,-33,15374,0,0,0,0,0,0,0,0,0,0,0
1029,129,-6,-58,15038,0,0,0,0,0,0,0,0,0,0,0
1030,129,41,-19,15443,0,0,0,0,0,0,0,0,0,0,0
1031,129,124,11,15484,0,0,0,0,0,0,0,0,0,0,0
1032,129,75,-37,15117,0,0,0,0,0,0,0,0,0,0,0
1033,129,250,-71,15167,0,0,0,0,0,0,0,0,0,0,0
1034,129,72,-102,15480,0,0,0,0,0,0,0,0,0,0,0
1035,129,150,8,15219,0,0,0,0,0,0,0,0,0,0,0
1036,129,260,-85,15113,0,0,0,0,0,0,0,0,0,0,0
1037,129,124,-31,15244,0,0,0,0,0,0,0,0,0,0,0
1038,129,183,-60,15149,0,0,0,0,0,0,0,0,0,0,0
1039,129,50,-166,15258,0,0,0,0,0,0,0,0,0,0,0
1040,129,70,-11,15289,0,0,0,0,0,0,0,0,0,0,0
1041,129,218,-93,15336,0,0,0,0,0,0,0,0,0,0,0
1042,129,119,-46,15150,0,0,0,0,0,0,0,0,0,0,0
1043,129,230,-239,14892,0,0,0,0,0,0,0,0,0,0,0
1044,129,90,-185,15266,0,0,0,0,0,0,0,0,0,0,0
1045,129,64,35,15314,0,0,0,0,0,0,0,0,0,0,0
1046,129,94,-22,15368,0,0,0,0,0,0,0,0,0,0,0
1047,129,59,26,15102,0,0,0,0,0,0,0,0,0,0,0
1048,129,140,-106,15525,0,0,0,0,0,0,0,0,0,0,0
1049,129,28,-69,15077,0,0,0,0,0,0,0,0,0,0,0
1050,129,430,-82,14706,0,0,0,0,0,0,0,0,0,0,0
1051,129,46,-105,15480,0,0,0,0,0,0,0,0,0,0,0
1052,129,26,-76,15386,0,0,0,0,0,0,0,0,0,0,0
1053,129,-14,-93,15383,0,0,0,0,0,0,0,0,0,0,0
1054,129,179,-72,15348,0,0,0,0,0,0,0,0,0,0,0
1055,129,125,-106,15211,0,0,0,0,0,0,0,0,0,0,0
1056,129,242,-169,15114,0,0,0,0,0,0,0,0,0,0,0
1057,129,113,-201,15096,0,0,0,0,0,0,0,0,0,0,0
1058,129,125,-51,15344,0,0,0,0,0,0,0,0,0,0,0
1059,129,6,-161,15279,0,0,0,0,0,0,0,0,0,0,0
1060,129,235,-100,14999,0,0,0,0,0,0,0,0,0,0,0
1061,129,160,-150,14940,0,0,0,0,0,0,0,0,0,0,0
1062,129,128,-63,15411,0,0,0,0,0,0,0,0,0,0,0
1063,129,179,-166,15245,0,0,0,0,0,0,0,0,0,0,0
1064,129,187,-148,15286,0,0,0,0,0,0,0,0,0,0,0
1065,129,78,-149,15166,0,0,0,0,0,0,0,0,0,0,0
1066,129,167,-115,15124,0,0,0,0,0,0,0,0,0,0,0
1067,129,38,-152,15150,0,0,0,0,0,0,0,0,0,0,0
1068,129,254,-101,15163,0,0,0,0,0,0,0,0,0,0,0
1069,129,85,-200,15038,0,0,0,0,0,0,0,0,0,0,0
1070,129,54,-153,15314,0,0,0,0,0,0,0,0,0,0,0
1071,129,237,-225,15331,0,0,0,0,0,0,0,0,0,0,0
1072,129,217,-156,15042,0,0,0,0,0,0,0,0,0,0,0
1073,129,333,-218,15407,0,0,0,0,0,0,0,0,0,0,0
1074,129,138,-108,15098,0,0,0,0,0,0,0,0,0,0,0
1075,129,-26,-33,15342,0,0,0,0,0,0,0,0,0,0,0
1076,129,60,-98,15530,0,0,0,0,0,0,0,0,0,0,0
1077,129,145,-68,15072,0,0,0,0,0,0,0,0,0,0,0
1078,129,125,-144,15269,0,0,0,0,0,0,0,0,0,0,0
1079,129,128,-124,15231,0,0,0,0,0,0,0,0,0,0,0
1080,129,173,-146,15297,0,0,0,0,0,0,0,0,0,0,0
1081,129,129,-186,15328,0,0,0,0,0,0,0,0,0,0,0
1082,129,101,-203,15074,0,0,0,0,0,0,0,0,0,0,0
1083,129,67,-139,15258,0,0,0,0,0,0,0,0,0,0,0
1084,129,63,-193,15341,0,0,0,0,0,0,0,0,0,0,0
1085,129,98,-164,15352,0,0,0,0,0,0,0,0,0,0,0
1086,129,103,-137,15065,0,0,0,0,0,0,0,0,0,0,0
1087,129,79,-240,15155,0,0,0,0,0,0,0,0,0,0,0
1088,129,153,-135,15133,0,0,0,0,0,0,0,0,0,0,0
1089,129,167,-142,15291,0,0,0,0,0,0,0,0,0,0,0
1090,129,165,-109,15226,0,0,0,0,0,0,0,0,0,0,0
1091,129,2,-163,15267,0,0,0,0,0,0,0,0,0,0,0
1092,129,99,-86,15187,0,0,0,0,0,0,0,0,0,0,0
1093,129,213,-42,14979,0,0,0,0,0,0,0,0,0,0,0
1094,129,76,-111,15225,0,0,0,0,0,0,0,0,0,0,0
1095,129,-16,-144,15191,0,0,0,0,0,0,0,0,0,0,0
1096,129,0,-106,15483,0,0,0,0,0,0,0,0,0,0,0
1097,129,234,-95,15133,0,0,0,0,0,0,0,0,0,0,0
1098,129,154,-91,15092,0,0,0,0,0,0,0,0,0,0,0
1099,129,291,-68,15110,0,0,0,0,0,0,0,0,0,0,0
1100,129,-79,45,15474,0,0,0,0,0,0,0,0,0,0,0
1101,129,156,-5,15155,0,0,0,0,0,0,0,0,0,0,0
1102,129,252,-105,15069,0,0,0,0,0,0,0,0,0,0,0
1103,129,250,33,15280,0,0,0,0,0,0,0,0,0,0,0
1104,129,-38,-48,15587,0,0,0,0,0,0,0,0,0,0,0
1105,129,-87,-10,15583,0,0,0,0,0,0,0,0,0,0,0
1106,129,225,7,14858,0,0,0,0,0,0,0,0,0,0,0
1107,129,135,-100,15169,0,0,0,0,0,0,0,0,0,0,0
1108,129,62,-126,15486,0,0,0,0,0,0,0,0,0,0,0
1109,129,102,-57,15447,0,0,0,0,0,0,0,0,0,0,0
1110,129,49,-28,15113,0,0,0,0,0,0,0,0,0,0,0
1111,129,207,-61,15297,0,0,0,0,0,0,0,0,0,0,0
1112,129,52,-39,15187,0,0,0,0,0,0,0,0,0,0,0
1113,129,117,12,15306,0,0,0,0,0,0,0,0,0,0,0
1114,129,172,66,15351,0,0,0,0,0,0,0,0,0,0,0
1115,129,292,-70,14992,0,0,0,0,0,0,0,0,0,0,0
1116,129,308,0,15279,0,0,0,0,0,0,0,0,0,0,0
1117,129,454,-276,15110,0,0,0,0,0,0,0,0,0,0,0
1118,129,-38,152,15268,0,0,0,0,0,0,0,0,0,0,0
1119,129,42,213,15371,0,0,0,0,0,0,0,0,0,0,0
1120,129,957,-144,15162,0,0,0,0,0,0,0,0,0,0,0
1121,129,419,39,15508,0,0,0,0,0,0,0,0,0,0,0
1122,129,284,54,16182,0,0,0,0,0,0,0,0,0,0,0
1123,129,-86,-28,15391,0,0,0,0,0,0,0,0,0,0,0
1124,129,264,12,15486,0,0,0,0,0,0,0,0,0,0,0
1125,129,374,116,14472,0,0,0,0,0,0,0,0,0,0,0
1126,129,610,-62,15370,0,0,0,0,0,0,0,0,0,0,0
1127,129,432,164,15138,0,0,0,0,0,0,0,0,0,0,0
1128,129,177,357,15506,0,0,0,0,0,0,0,0,0,0,0
1129,129,468,277,15080,0,0,0,0,0,0,0,0,0,0,0
1130,129,382,182,15359,0,0,0,0,0,0,0,0,0,0,0
1131,129,411,342,15541,0,0,0,0,0,0,0,0,0,0,0
1132,129,558,147,15117,0,0,0,0,0,0,0,0,0,0,0
1133,129,430,246,15125,0,0,0,0,0,0,0,0,0,0,0
1134,129,599,344,14990,0,0,0,0,0,0,0,0,0,0,0
1135,129,521,376,15301,0,0,0,0,0,0,0,0,0,0,0
1136,129,666,355,15133,0,0,0,0,0,0,0,0,0,0,0
1137,129,621,270,15447,0,0,0,0,0,0,0,0,0,0,0
1138,129,709,614,7071,0,0,0,0,0,0,0,0,0,0,0
1139,129,-14,-187,16361,0,0,0,0,0,0,0,0,0,0,0
1140,129,384,59,14767,0,0,0,0,0,0,0,0,0,0,0
1141,129,135,243,14630,0,0,0,0,0,0,0,0,0,0,0
1142,129,62,259,15280,0,0,0,0,0,0,0,0,0,0,0
1143,129,380,159,15265,0,0,0,0,0,0,0,0,0,0,0
1144,129,628,-277,15200,0,0,0,0,0,0,0,0,0,0,0
1145,129,512,-237,15477,0,0,0,0,0,0,0,0,0,0,0
1146,129,316,-78,15444,0,0,0,0,0,0,0,0,0,0,0
1147,129,433,-9,14883,0,0,0,0,0,0,0,0,0,0,0
1148,129,381,-114,15464,0,0,0,0,0,0,0,0,0,0,0
1149,129,576,-129,14929,0,0,0,0,0,0,0,0,0,0,0
1150,129,444,-201,15366,0,0,0,0,0,0,0,0,0,0,0
1151,129,263,42,15286,0,0,0,0,0,0,0,0,0,0,0
1152,129,298,45,15395,0,0,0,0,0,0,0,0,0,0,0
1153,129,604,68,15105,0,0,0,0,0,0,0,0,0,0,0
1154,129,359,80,15136,0,0,0,0,0,0,0,0,0,0,0
1155,129,394,87,15087,0,0,0,0,0,0,0,0,0,0,0
1156,129,260,347,15461,0,0,0,0,0,0,0,0,0,0,0
1157,129,150,329,15014,0,0,0,0,0,0,0,0,0,0,0
1158,129,401,329,15023,0,0,0,0,0,0,0,0,0,0,0
1159,129,326,340,15158,0,0,0,0,0,0,0,0,0,0,0
1160,129,231,307,15173,0,0,0,0,0,0,0,0,0,0,0
1161,129,318,363,15502,0,0,0,0,0,0,0,0,0,0,0
1162,129,483,316,15048,0,0,0,0,0,0,0,0,0,0,0
1163,129,576,345,14802,0,0,0,0,0,0,0,0,0,0,0
1164,129,434,481,15167,0,0,0,0,0,0,0,0,0,0,0
1165,129,285,388,15472,0,0,0,0,0,0,0,0,0,0,0
1166,129,271,298,15083,0,0,0,0,0,0,0,0,0,0,0
1167,129,228,439,15030,0,0,0,0,0,0,0,0,0,0,0
1168,129,519,629,14936,0,0,0,0,0,0,0,0,0,0,0
1169,129,222,518,15049,0,0,0,0,0,0,0,0,0,0,0
1170,129,387,379,15465,0,0,0,0,0,0,0,0,0,0,0
1171,129,81,614,15598,0,0,0,0,0,0,0,0,0,0,0
1172,129,269,636,15321,0,0,0,0,0,0,0,0,0,0,0
1173,129,185,556,14815,0,0,0,0,0,0,0,0,0,0,0
1174,129,104,793,15456,0,0,0,0,0,0,0,0,0,0,0
1175,129,120,807,14925,0,0,0,0,0,0,0,0,0,0,0
1176,129,-1,845,15100,0,0,0,0,0,0,0,0,0,0,0
1177,129,-54,1041,15648,0,0,0,0,0,0,0,0,0,0,0
1178,129,97,860,15059,0,0,0,0,0,0,0,0,0,0,0
1179,129,296,897,15168,0,0,0,0,0,0,0,0,0,0,0
1180,129,-80,924,14668,0,0,0,0,0,0,0,0,0,0,0
1181,129,-129,1045,15238,0,0,0,0,0,0,0,0,0,0,0
1182,129,312,1228,15527,0,0,0,0,0,0,0,0,0,0,0
1183,129,136,1388,15013,0,0,0,0,0,0,0,0,0,0,0
1184,129,105,1265,14971,0,0,0,0,0,0,0,0,0,0,0
1185,129,84,1439,14897,0,0,0,0,0,0,0,0,0,0,0
1186,129,11,1422,15263,0,0,0,0,0,0,0,0,0,0,0
1187,129,7,1637,15178,0,0,0,0,0,0,0,0,0,0,0
1188,129,115,1579,15089,0,0,0,0,0,0,0,0,0,0,0
1189,129,-14,1624,15195,0,0,0,0,0,0,0,0,0,0,0
1190,129,37,1861,14797,0,0,0,0,0,0,0,0,0,0,0
1191,129,-165,2061,15058,0,0,0,0,0,0,0,0,0,0,0
1192,129,81,2087,15339,0,0,0,0,0,0,0,0,0,0,0
1193,129,-53,2155,15130,0,0,0,0,0,0,0,0,0,0,0
1194,129,-102,2164,15200,0,0,0,0,0,0,0,0,0,0,0
1195,129,-103,2398,14998,0,0,0,0,0,0,0,0,0,0,0
1196,129,158,2284,14901,0,0,0,0,0,0,0,0,0,0,0
1197,129,-77,2457,14943,0,0,0,0,0,0,0,0,0,0,0
1198,129,-197,2552,15392,0,0,0,0,0,0,0,0,0,0,0
1199,129,7,2727,15239,0,0,0,0,0,0,0,0,0,0,0
1200,129,40,2803,14968,0,0,0,0,0,0,0,0,0,0,0
1201,129,178,2738,14796,0,0,0,0,0,0,0,0,0,0,0
1202,129,122,2833,15010,0,0,0,0,0,0,0,0,0,0,0
1203,129,164,2877,15201,0,0,0,0,0,0,0,0,0,0,0
1204,129,194,2905,14878,0,0,0,0,0,0,0,0,0,0,0
1205,129,310,3039,14545,0,0,0,0,0,0,0,0,0,0,0
1206,129,35,3191,14667,0,0,0,0,0,0,0,0,0,0,0
1207,129,300,3258,14577,0,0,0,0,0,0,0,0,0,0,0
1208,129,176,3425,14953,0,0,0,0,0,0,0,0,0,0,0
1209,129,180,3597,14757,0,0,0,0,0,0,0,0,0,0,0
1210,129,227,3591,15057,0,0,0,0,0,0,0,0,0,0,0
1211,129,256,3604,15085,0,0,0,0,0,0,0,0,0,0,0
1212,129,506,3885,14856,0,0,0,0,0,0,0,0,0,0,0
1213,129,283,4006,14864,0,0,0,0,0,0,0,0,0,0,0
1214,129,296,4062,14917,0,0,0,0,0,0,0,0,0,0,0
1215,129,246,4340,14827,0,0,0,0,0,0,0,0,0,0,0
1216,129,399,4289,14671,0,0,0,0,0,0,0,0,0,0,0
1217,129,473,4333,14558,0,0,0,0,0,0,0,0,0,0,0
1218,129,483,4348,14357,0,0,0,0,0,0,0,0,0,0,0
1219,129,131,4710,14712,0,0,0,0,0,0,0,0,0,0,0
1220,129,225,4970,14941,0,0,0,0,0,0,0,0,0,0,0
1221,129,271,5078,14527,0,0,0,0,0,0,0,0,0,0,0
1222,129,307,5077,14610,0,0,0,0,0,0,0,0,0,0,0
1223,129,482,5151,14247,0,0,0,0,0,0,0,0,0,0,0
1224,129,323,5373,14169,0,0,0,0,0,0,0,0,0,0,0
1225,129,443,5468,14504,0,0,0,0,0,0,0,0,0,0,0
1226,129,181,5595,14388,0,0,0,0,0,0,0,0,0,0,0
1227,129,230,5832,14097,0,0,0,0,0,0,0,0,0,0,0
1228,129,214,5953,13753,0,0,0,0,0,0,0,0,0,0,0
1229,129,357,6287,13572,0,0,0,0,0,0,0,0,0,0,0
1230,129,400,6438,14303,0,0,0,0,0,0,0,0,0,0,0
1231,129,371,6553,14240,0,0,0,0,0,0,0,0,0,0,0
1232,129,326,6857,14177,0,0,0,0,0,0,0,0,0,0,0
1233,129,230,6850,14174,0,0,0,0,0,0,0,0,0,0,0
1234,129,320,7110,13858,0,0,0,0,0,0,0,0,0,0,0
1235,129,268,7149,13730,0,0,0,0,0,0,0,0,0,0,0
1236,129,211,7282,13824,0,0,0,0,0,0,0,0,0,0,0
1237,129,350,7364,13211,0,0,0,0,0,0,0,0,0,0,0
1238,129,-50,7543,13548,0,0,0,0,0,0,0,0,0,0,0
1239,129,160,7732,13690,0,0,0,0,0,0,0,0,0,0,0
1240,129,226,7801,13510,0,0,0,0,0,0,0,0,0,0,0
1241,129,140,7802,13205,0,0,0,0,0,0,0,0,0,0,0
1242,129,217,7906,13241,0,0,0,0,0,0,0,0,0,0,0
1243,129,-28,8068,13194,0,0,0,0,0,0,0,0,0,0,0
1244,129,19,8259,13368,0,0,0,0,0,0,0,0,0,0,0
1245,129,-40,8360,12957,0,0,0,0,0,0,0,0,0,0,0
1246,129,152,8413,12856,0,0,0,0,0,0,0,0,0,0,0
1247,129,214,8542,13112,0,0,0,0,0,0,0,0,0,0,0
1248,129,202,8647,12871,0,0,0,0,0,0,0,0,0,0,0
1249,129,12,8922,13009,0,0,0,0,0,0,0,0,0,0,0
1250,129,-213,9082,12962,0,0,0,0,0,0,0,0,0,0,0
1251,129,71,9029,12782,0,0,0,0,0,0,0,0,0,0,0
1252,129,120,9053,12503,0,0,0,0,0,0,0,0,0,0,0
1253,129,34,9356,12541,0,0,0,0,0,0,0,0,0,0,0
1254,129,-168,9447,12419,0,0,0,0,0,0,0,0,0,0,0
1255,129,-164,9555,12380,0,0,0,0,0,0,0,0,0,0,0
1256,129,-131,9533,12171,0,0,0,0,0,0,0,0,0,0,0
1257,129,-29,9745,12140,0,0,0,0,0,0,0,0,0,0,0
1258,129,-97,9983,12516,0,0,0,0,0,0,0,0,0,0,0
1259,129,-216,10224,12201,0,0,0,0,0,0,0,0,0,0,0
1260,129,-71,10005,11615,0,0,0,0,0,0,0,0,0,0,0
1261,129,-275,10258,12165,0,0,0,0,0,0,0,0,0,0,0
1262,129,-196,10234,11680,0,0,0,0,0,0,0,0,0,0,0
1263,129,2,10303,11431,0,0,0,0,0,0,0,0,0,0,0
1264,129,-495,10661,11996,0,0,0,0,0,0,0,0,0,0,0
1265,129,-273,10842,11935,0,0,0,0,0,0,0,0,0,0,0
1266,129,-78,10768,11333,0,0,0,0,0,0,0,0,0,0,0
1267,129,-308,10761,11472,0,0,0,0,0,0,0,0,0,0,0
1268,129,-248,10928,11157,0,0,0,0,0,0,0,0,0,0,0
1269,129,-175,11033,11383,0,0,0,0,0,0,0,0,0,0,0
1270,129,-285,11124,11358,0,0,0,0,0,0,0,0,0,0,0
1271,129,-150,11004,10961,0,0,0,0,0,0,0,0,0,0,0
1272,129,-496,11289,10830,0,0,0,0,0,0,0,0,0,0,0
1273,129,-425,11262,11082,0,0,0,0,0,0,0,0,0,0,0
1274,129,-480,11339,10990,0,0,0,0,0,0,0,0,0,0,0
1275,129,-192,11402,9796,0,0,0,0,0,0,0,0,0,0,0
1276,129,-527,11537,11289,0,0,0,0,0,0,0,0,0,0,0
1277,129,-443,11561,11089,0,0,0,0,0,0,0,0,0,0,0
1278,129,-200,11762,10569,0,0,0,0,0,0,0,0,0,0,0
1279,129,-622,11872,10754,0,0,0,0,0,0,0,0,0,0,0
1280,129,-456,11962,10604,0,0,0,0,0,0,0,0,0,0,0
1281,129,-652,12037,10526,0,0,0,0,0,0,0,0,0,0,0
1282,129,-351,11967,10088,0,0,0,0,0,0,0,0,0,0,0
1283,129,-422,11924,9976,0,0,0,0,0,0,0,0,0,0,0
1284,129,-582,12110,10308,0,0,0,0,0,0,0,0,0,0,0
1285,129,-734,12445,10275,0,0,0,0,0,0,0,0,0,0,0
1286,129,-683,12577,10112,0,0,0,0,0,0,0,0,0,0,0
1287,129,-491,12535,10018,0,0,0,0,0,0,0,0,0,0,0
1288,129,-460,12407,9445,0,0,0,0,0,0,0,0,0,0,0
1289,129,-409,12501,9881,0,0,0,0,0,0,0,0,0,0,0
1290,129,-640,12735,9299,0,0,0,0,0,0,0,0,0,0,0
1291,129,-722,12799,9744,0,0,0,0,0,0,0,0,0,0,0
1292,129,-529,12848,10120,0,0,0,0,0,0,0,0,0,0,0
1293,129,-260,12600,9714,0,0,0,0,0,0,0,0,0,0,0
1294,129,-580,12902,9419,0,0,0,0,0,0,0,0,0,0,0
1295,129,-785,13083,9304,0,0,0,0,0,0,0,0,0,0,0
1296,129,-712,13157,9212,0,0,0,0,0,0,0,0,0,0,0
1297,129,-691,13145,9086,0,0,0,0,0,0,0,0,0,0,0
1298,129,-468,13034,9106,0,0,0,0,0,0,0,0,0,0,0
1299,129,-556,12981,8991,0,0,0,0,0,0,0,0,0,0,0
1300,129,-686,13175,9087,0,0,0,0,0,0,0,0,0,0,0
1301,129,-885,13201,8995,0,0,0,0,0,0,0,0,0,0,0
1302,129,-682,13248,8852,0,0,0,0,0,0,0,0,0,0,0
1303,129,-725,13406,8953,0,0,0,0,0,0,0,0,0,0,0
1304,129,-660,13380,9011,0,0,0,0,0,0,0,0,0,0,0
1305,129,-760,13541,8862,0,0,0,0,0,0,0,0,0,0,0
1306,129,-657,13232,8676,0,0,0,0,0,0,0,0,0,0,0
1307,129,-787,13445,8593,0,0,0,0,0,0,0,0,0,0,0
1308,129,-882,13800,8655,0,0,0,0,0,0,0,0,0,0,0
1309,129,-728,13519,8535,0,0,0,0,0,0,0,0,0,0,0
1310,129,-680,13349,8408,0,0,0,0,0,0,0,0,0,0,0
1311,129,-775,13696,8518,0,0,0,0,0,0,0,0,0,0,0
1312,129,-673,13519,8206,0,0,0,0,0,0,0,0,0,0,0
1313,129,-1102,13643,7752,0,0,0,0,0,0,0,0,0,0,0
1314,129,-1044,13745,7924,0,0,0,0,0,0,0,0,0,0,0
1315,129,-820,14013,8181,0,0,0,0,0,0,0,0,0,0,0
1316,129,-351,13775,7711,0,0,0,0,0,0,0,0,0,0,0
1317,129,-560,14041,7863,0,0,0,0,0,0,0,0,0,0,0
1318,129,-930,14180,8039,0,0,0,0,0,0,0,0,0,0,0
1319,129,-829,14326,7633,0,0,0,0,0,0,0,0,0,0,0
1320,129,-695,14340,7780,0,0,0,0,0,0,0,0,0,0,0
1321,129,-756,14304,7186,0,0,0,0,0,0,0,0,0,0,0
1322,129,-794,14220,7388,0,0,0,0,0,0,0,0,0,0,0
1323,129,-847,14462,7132,0,0,0,0,0,0,0,0,0,0,0
1324,129,-1013,14512,7257,0,0,0,0,0,0,0,0,0,0,0
1325,129,-698,14483,7350,0,0,0,0,0,0,0,0,0,0,0
1326,129,-744,14590,6801,0,0,0,0,0,0,0,0,0,0,0
1327,129,-976,15132,6816,0,0,0,0,0,0,0,0,0,0,0
1328,129,-686,14429,6742,0,0,0,0,0,0,0,0,0,0,0
1329,129,-912,14765,6363,0,0,0,0,0,0,0,0,0,0,0
1330,129,-974,14738,6223,0,0,0,0,0,0,0,0,0,0,0
1331,129,-807,14886,6360,0,0,0,0,0,0,0,0,0,0,0
1332,129,-798,14974,6319,0,0,0,0,0,0,0,0,0,0,0
1333,129,-731,15008,6316,0,0,0,0,0,0,0,0,0,0,0
1334,129,-909,15041,6121,0,0,0,0,0,0,0,0,0,0,0
1335,129,-837,15045,6136,0,0,0,0,0,0,0,0,0,0,0
1336,129,-835,15183,5923,0,0,0,0,0,0,0,0,0,0,0
1337,129,-776,15226,5745,0,0,0,0,0,0,0,0,0,0,0
1338,129,-1011,15244,5768,0,0,0,0,0,0,0,0,0,0,0
1339,129,-1014,15289,5578,0,0,0,0,0,0,0,0,0,0,0
1340,129,-804,15463,5531,0,0,0,0,0,0,0,0,0,0,0
1341,129,-742,15216,5663,0,0,0,0,0,0,0,0,0,0,0
1342,129,-884,15065,5388,0,0,0,0,0,0,0,0,0,0,0
1343,129,-948,15376,5211,0,0,0,0,0,0,0,0,0,0,0
1344,129,-1060,15479,5256,0,0,0,0,0,0,0,0,0,0,0
1345,129,-946,15348,5302,0,0,0,0,0,0,0,0,0,0,0
1346,129,-793,15424,5285,0,0,0,0,0,0,0,0,0,0,0
1347,129,-1118,15456,5191,0,0,0,0,0,0,0,0,0,0,0
1348,129,-675,15226,5207,0,0,0,0,0,0,0,0,0,0,0
1349,129,-772,15448,4968,0,0,0,0,0,0,0,0,0,0,0
1350,129,-670,15570,4769,0,0,0,0,0,0,0,0,0,0,0
1351,129,-776,15738,4763,0,0,0,0,0,0,0,0,0,0,0
1352,129,-925,15896,4659,0,0,0,0,0,0,0,0,0,0,0
1353,129,-870,15411,4351,0,0,0,0,0,0,0,0,0,0,0
1354,129,-790,15499,4257,0,0,0,0,0,0,0,0,0,0,0
1355,129,-733,15448,4359,0,0,0,0,0,0,0,0,0,0,0
1356,129,-733,15729,4188,0,0,0,0,0,0,0,0,0,0,0
1357,129,-726,16048,4198,0,0,0,0,0,0,0,0,0,0,0
1358,129,-1004,16060,4038,0,0,0,0,0,0,0,0,0,0,0
1359,129,-868,16327,4093,0,0,0,0,0,0,0,0,0,0,0
1360,129,-600,15999,4071,0,0,0,0,0,0,0,0,0,0,0
1361,129,-646,15676,3913,0,0,0,0,0,0,0,0,0,0,0
1362,129,-682,16004,3964,0,0,0,0,0,0,0,0,0,0,0
1363,129,-786,16098,3580,0,0,0,0,0,0,0,0,0,0,0
1364,129,-871,16203,3714,0,0,0,0,0,0,0,0,0,0,0
1365,129,-750,16025,3618,0,0,0,0,0,0,0,0,0,0,0
1366,129,-622,16083,3570,0,0,0,0,0,0,0,0,0,0,0
1367,129,-642,15863,3484,0,0,0,0,0,0,0,0,0,0,0
1368,129,-789,15905,3484,0,0,0,0,0,0,0,0,0,0,0
1369,129,-724,16146,3457,0,0,0,0,0,0,0,0,0,0,0
1370,129,-642,16288,3264,0,0,0,0,0,0,0,0,0,0,0
1371,129,-529,15989,3193,0,0,0,0,0,0,0,0,0,0,0
1372,129,-634,16047,3170,0,0,0,0,0,0,0,0,0,0,0
1373,129,-494,16315,3162,0,0,0,0,0,0,0,0,0,0,0
1374,129,-708,16459,2854,0,0,0,0,0,0,0,0,0,0,0
1375,129,-547,16345,2860,0,0,0,0,0,0,0,0,0,0,0
1376,129,-546,16076,2866,0,0,0,0,0,0,0,0,0,0,0
1377,129,-385,16095,2586,0,0,0,0,0,0,0,0,0,0,0
1378,129,-800,16103,2619,0,0,0,0,0,0,0,0,0,0,0
1379,129,-1452,16364,2038,0,0,0,0,0,0,0,0,0,0,0
1380,129,-238,16220,2743,0,0,0,0,0,0,0,0,0,0,0
1381,129,-821,16268,2339,0,0,0,0,0,0,0,0,0,0,0
1382,129,-571,16226,2483,0,0,0,0,0,0,0,0,0,0,0
1383,129,-528,16452,2438,0,0,0,0,0,0,0,0,0,0,0
1384,129,-316,16448,2441,0,0,0,0,0,0,0,0,0,0,0
1385,129,-692,16499,2217,0,0,0,0,0,0,0,0,0,0,0
1386,129,-429,16399,2123,0,0,0,0,0,0,0,0,0,0,0
1387,129,-723,16523,1929,0,0,0,0,0,0,0,0,0,0,0
1388,129,-447,16360,2007,0,0,0,0,0,0,0,0,0,0,0
1389,129,-546,16479,1763,0,0,0,0,0,0,0,0,0,0,0
1390,129,-575,16348,1709,0,0,0,0,0,0,0,0,0,0,0
1391,129,-377,16267,1705,0,0,0,0,0,0,0,0,0,0,0
1392,129,-412,16537,1787,0,0,0,0,0,0,0,0,0,0,0
1393,129,-553,16645,1655,0,0,0,0,0,0,0,0,0,0,0
1394,129,-769,16613,1456,0,0,0,0,0,0,0,0,0,0,0
1395,129,-737,16736,1472,0,0,0,0,0,0,0,0,0,0,0
1396,129,-434,16485,1531,0,0,0,0,0,0,0,0,0,0,0
1397,129,-684,16562,1311,0,0,0,0,0,0,0,0,0,0,0
1398,129,-520,16373,1189,0,0,0,0,0,0,0,0,0,0,0
1399,129,-725,16910,1084,0,0,0,0,0,0,0,0,0,0,0
1400,129,-561,16603,1029,0,0,0,0,0,0,0,0,0,0,0
1401,129,-356,16616,1106,0,0,0,0,0,0,0,0,0,0,0
1402,129,-288,16401,1148,0,0,0,0,0,0,0,0,0,0,0
1403,129,-422,16594,1027,0,0,0,0,0,0,0,0,0,0,0
1404,129,-693,16912,851,0,0,0,0,0,0,0,0,0,0,0
1405,129,-423,16912,656,0,0,0,0,0,0,0,0,0,0,0
1406,129,-210,16521,789,0,0,0,0,0,0,0,0,0,0,0
1407,129,-525,16748,581,0,0,0,0,0,0,0,0,0,0,0
1408,129,-404,16666,746,0,0,0,0,0,0,0,0,0,0,0
1409,129,-449,16672,590,0,0,0,0,0,0,0,0,0,0,0
1410,129,-401,16615,624,0,0,0,0,0,0,0,0,0,0,0
1411,129,-196,16683,577,0,0,0,0,0,0,0,0,0,0,0
1412,129,76,16720,469,0,0,0,0,0,0,0,0,0,0,0
1413,129,-397,16646,302,0,0,0,0,0,0,0,0,0,0,0
1414,129,-446,16809,232,0,0,0,0,0,0,0,0,0,0,0
1415,129,-401,16845,197,0,0,0,0,0,0,0,0,0,0,0
1416,129,-125,16689,109,0,0,0,0,0,0,0,0,0,0,0
1417,129,54,16432,486,0,0,0,0,0,0,0,0,0,0,0
1418,129,-226,16785,180,0,0,0,0,0,0,0,0,0,0,0
1419,129,-254,16687,99,0,0,0,0,0,0,0,0,0,0,0
1420,129,-1020,16845,418,0,0,0,0,0,0,0,0,0,0,0
1421,129,-170,16668,106,0,0,0,0,0,0,0,0,0,0,0
1422,129,-850,16572,-304,0,0,0,0,0,0,0,0,0,0,0
1423,129,-112,16912,-20,0,0,0,0,0,0,0,0,0,0,0
1424,129,-285,16901,-52,0,0,0,0,0,0,0,0,0,0,0
1425,129,-389,16822,-104,0,0,0,0,0,0,0,0,0,0,0
1426,129,-198,16546,-65,0,0,0,0,0,0,0,0,0,0,0
1427,129,-341,16682,-325,0,0,0,0,0,0,0,0,0,0,0
1428,129,-256,16786,-289,0,0,0,0,0,0,0,0,0,0,0
1429,129,38,16652,-248,0,0,0,0,0,0,0,0,0,0,0
1430,129,-74,16798,-152,0,0,0,0,0,0,0,0,0,0,0
1431,129,-49,16696,-143,0,0,0,0,0,0,0,0,0,0,0
1432,129,-323,16789,-176,0,0,0,0,0,0,0,0,0,0,0
1433,129,-293,16936,-356,0,0,0,0,0,0,0,0,0,0,0
1434,129,-151,16852,-107,0,0,0,0,0,0,0,0,0,0,0
1435,129,-244,16807,-186,0,0,0,0,0,0,0,0,0,0,0
1436,129,-138,16906,-244,0,0,0,0,0,0,0,0,0,0,0
1437,129,-129,16581,-281,0,0,0,0,0,0,0,0,0,0,0
1438,129,-156,16562,-228,0,0,0,0,0,0,0,0,0,0,0
1439,129,-208,16674,-157,0,0,0,0,0,0,0,0,0,0,0
1440,129,-115,16648,-15,0,0,0,0,0,0,0,0,0,0,0
1441,129,-122,16676,-72,0,0,0,0,0,0,0,0,0,0,0
1442,129,-213,16762,-163,0,0,0,0,0,0,0,0,0,0,0
1443,129,-168,16749,-166,0,0,0,0,0,0,0,0,0,0,0
1444,129,-150,16663,-219,0,0,0,0,0,0,0,0,0,0,0
1445,129,-293,16726,-170,0,0,0,0,0,0,0,0,0,0,0
1446,129,-55,16770,-83,0,0,0,0,0,0,0,0,0,0,0
1447,129,-141,16611,-159,0,0,0,0,0,0,0,0,0,0,0
1448,129,-322,16691,-103,0,0,0,0,0,0,0,0,0,0,0
1449,129,-324,16814,-16,0,0,0,0,0,0,0,0,0,0,0
1450,129,-157,16844,-137,0,0,0,0,0,0,0,0,0,0,0
1451,129,-73,16760,-139,0,0,0,0,0,0,0,0,0,0,0
1452,129,-132,16750,-76,0,0,0,0,0,0,0,0,0,0,0
1453,129,-158,16555,-72,0,0,0,0,0,0,0,0,0,0,0
1454,129,-281,16650,-183,0,0,0,0,0,0,0,0,0,0,0
1455,129,-235,16670,13,0,0,0,0,0,0,0,0,0,0,0
1456,129,-120,16823,-45,0,0,0,0,0,0,0,0,0,0,0
1457,129,21,16917,57,0,0,0,0,0,0,0,0,0,0,0
1458,129,-264,16792,-199,0,0,0,0,0,0,0,0,0,0,0
1459,129,-247,16511,-359,0,0,0,0,0,0,0,0,0,0,0
1460,129,-185,16809,-98,0,0,0,0,0,0,0,0,0,0,0
1461,129,-327,16885,-129,0,0,0,0,0,0,0,0,0,0,0
1462,129,-147,16686,8,0,0,0,0,0,0,0,0,0,0,0
1463,129,-52,16650,61,0,0,0,0,0,0,0,0,0,0,0
1464,129,-30,16555,36,0,0,0,0,0,0,0,0,0,0,0
1465,129,-230,16677,-174,0,0,0,0,0,0,0,0,0,0,0
1466,129,-148,16904,-60,0,0,0,0,0,0,0,0,0,0,0
1467,129,-163,16985,27,0,0,0,0,0,0,0,0,0,0,0
1468,129,-12,16668,142,0,0,0,0,0,0,0,0,0,0,0
1469,129,-73,16511,-65,0,0,0,0,0,0,0,0,0,0,0
1470,129,87,16490,111,0,0,0,0,0,0,0,0,0,0,0
1471,129,-215,16686,-41,0,0,0,0,0,0,0,0,0,0,0
1472,129,-66,16853,35,0,0,0,0,0,0,0,0,0,0,0
1473,129,-68,16772,-59,0,0,0,0,0,0,0,0,0,0,0
1474,129,-59,16654,17,0,0,0,0,0,0,0,0,0,0,0
1475,129,-250,16701,-98,0,0,0,0,0,0,0,0,0,0,0
1476,129,53,16726,117,0,0,0,0,0,0,0,0,0,0,0
1477,129,-88,16877,157,0,0,0,0,0,0,0,0,0,0,0
1478,129,-141,16722,-40,0,0,0,0,0,0,0,0,0,0,0
1479,129,-290,16716,-468,0,0,0,0,0,0,0,0,0,0,0
1480,129,-137,16478,70,0,0,0,0,0,0,0,0,0,0,0
1481,129,-369,16729,90,0,0,0,0,0,0,0,0,0,0,0
1482,129,-48,16741,102,0,0,0,0,0,0,0,0,0,0,0
1483,129,-196,16665,25,0,0,0,0,0,0,0,0,0,0,0
1484,129,-22,16676,128,0,0,0,0,0,0,0,0,0,0,0
1485,129,107,16769,62,0,0,0,0,0,0,0,0,0,0,0
1486,129,-212,16907,120,0,0,0,0,0,0,0,0,0,0,0
1487,129,-18,16660,130,0,0,0,0,0,0,0,0,0,0,0
1488,129,-187,16637,53,0,0,0,0,0,0,0,0,0,0,0
1489,129,-165,16710,152,0,0,0,0,0,0,0,0,0,0,0
1490,129,-173,16733,10,0,0,0,0,0,0,0,0,0,0,0
1491,129,-169,16681,48,0,0,0,0,0,0,0,0,0,0,0
1492,129,-273,16595,116,0,0,0,0,0,0,0,0,0,0,0
1493,129,-269,16516,91,0,0,0,0,0,0,0,0,0,0,0
1494,129,-112,16737,133,0,0,0,0,0,0,0,0,0,0,0
1495,129,-43,16821,109,0,0,0,0,0,0,0,0,0,0,0
1496,129,-247,16637,21,0,0,0,0,0,0,0,0,0,0,0
1497,129,-179,16726,176,0,0,0,0,0,0,0,0,0,0,0
1498,129,-122,16693,203,0,0,0,0,0,0,0,0,0,0,0
1499,129,-78,16726,90,0,0,0,0,0,0,0,0,0,0,0
1500,129,-108,16663,150,0,0,0,0,0,0,0,0,0,0,0
1501,129,-203,16697,70,0,0,0,0,0,0,0,0,0,0,0
1502,129,-75,16803,228,0,0,0,0,0,0,0,0,0,0,0
1503,129,36,16559,227,0,0,0,0,0,0,0,0,0,0,0
1504,129,-221,16841,17,0,0,0,0,0,0,0,0,0,0,0
1505,129,-171,16724,116,0,0,0,0,0,0,0,0,0,0,0
1506,129,-48,16609,165,0,0,0,0,0,0,0,0,0,0,0
1507,129,-56,16526,150,0,0,0,0,0,0,0,0,0,0,0
1508,129,-138,16751,185,0,0,0,0,0,0,0,0,0,0,0
1509,129,-28,16716,284,0,0,0,0,0,0,0,0,0,0,0
1510,129,-123,16906,119,0,0,0,0,0,0,0,0,0,0,0
1511,129,-67,16598,34,0,0,0,0,0,0,0,0,0,0,0
1512,129,-21,16563,111,0,0,0,0,0,0,0,0,0,0,0
1513,129,-149,16738,13,0,0,0,0,0,0,0,0,0,0,0
1514,129,-29,16754,292,0,0,0,0,0,0,0,0,0,0,0
1515,129,-98,16776,56,0,0,0,0,0,0,0,0,0,0,0
1516,129,-157,16677,276,0,0,0,0,0,0,0,0,0,0,0
1517,129,-64,16716,-3,0,0,0,0,0,0,0,0,0,0,0
1518,129,35,16677,162,0,0,0,0,0,0,0,0,0,0,0
1519,129,-2,16645,357,0,0,0,0,0,0,0,0,0,0,0
1520,129,-51,16792,258,0,0,0,0,0,0,0,0,0,0,0
1521,129,-125,16713,117,0,0,0,0,0,0,0,0,0,0,0
1522,129,-75,16614,122,0,0,0,0,0,0,0,0,0,0,0
1523,129,-109,16630,298,0,0,0,0,0,0,0,0,0,0,0
1524,129,-23,16579,167,0,0,0,0,0,0,0,0,0,0,0
1525,129,87,16559,320,0,0,0,0,0,0,0,0,0,0,0
1526,129,-297,16689,288,0,0,0,0,0,0,0,0,0,0,0
1527,129,-38,16778,314,0,0,0,0,0,0,0,0,0,0,0
1528,129,-29,16443,297,0,0,0,0,0,0,0,0,0,0,0
1529,129,-138,16731,135,0,0,0,0,0,0,0,0,0,0,0
1530,129,-22,16655,411,0,0,0,0,0,0,0,0,0,0,0
1531,129,89,16689,209,0,0,0,0,0,0,0,0,0,0,0
1532,129,-255,16826,38,0,0,0,0,0,0,0,0,0,0,0
1533,129,38,16720,221,0,0,0,0,0,0,0,0,0,0,0
1534,129,-60,16703,275,0,0,0,0,0,0,0,0,0,0,0
1535,129,-99,16720,223,0,0,0,0,0,0,0,0,0,0,0
1536,129,-97,16606,228,0,0,0,0,0,0,0,0,0,0,0
1537,129,-111,16744,271,0,0,0,0,0,0,0,0,0,0,0
1538,129,-53,16673,279,0,0,0,0,0,0,0,0,0,0,0
1539,129,-220,16812,310,0,0,0,0,0,0,0,0,0,0,0
1540,129,-60,16665,155,0,0,0,0,0,0,0,0,0,0,0
1541,129,108,16595,93,0,0,0,0,0,0,0,0,0,0,0
1542,129,64,16602,304,0,0,0,0,0,0,0,0,0,0,0
1543,129,-102,16709,27,0,0,0,0,0,0,0,0,0,0,0
1544,129,-17,16883,270,0,0,0,0,0,0,0,0,0,0,0
1545,129,-122,16772,213,0,0,0,0,0,0,0,0,0,0,0
1546,129,-146,16657,358,0,0,0,0,0,0,0,0,0,0,0
1547,129,20,16605,377,0,0,0,0,0,0,0,0,0,0,0
1548,129,139,16506,412,0,0,0,0,0,0,0,0,0,0,0
1549,129,-48,16623,259,0,0,0,0,0,0,0,0,0,0,0
1550,129,-253,16863,368,0,0,0,0,0,0,0,0,0,0,0
1551,129,-70,16775,270,0,0,0,0,0,0,0,0,0,0,0
1552,129,41,16503,368,0,0,0,0,0,0,0,0,0,0,0
1553,129,26,16632,376,0,0,0,0,0,0,0,0,0,0,0
1554,129,-81,16701,401,0,0,0,0,0,0,0,0,0,0,0
1555,129,-62,16959,456,0,0,0,0,0,0,0,0,0,0,0
1556,129,-3,16633,373,0,0,0,0,0,0,0,0,0,0,0
1557,129,235,16551,533,0,0,0,0,0,0,0,0,0,0,0
1558,129,-59,16557,412,0,0,0,0,0,0,0,0,0,0,0
1559,129,117,16660,431,0,0,0,0,0,0,0,0,0,0,0
1560,129,21,16895,460,0,0,0,0,0,0,0,0,0,0,0
1561,129,-14,16645,363,0,0,0,0,0,0,0,0,0,0,0
1562,129,62,16651,474,0,0,0,0,0,0,0,0,0,0,0
1563,129,31,16529,397,0,0,0,0,0,0,0,0,0,0,0
1564,129,-84,16805,370,0,0,0,0,0,0,0,0,0,0,0
1565,129,28,16807,533,0,0,0,0,0,0,0,0,0,0,0
1566,129,82,16606,632,0,0,0,0,0,0,0,0,0,0,0
1567,129,121,16534,542,0,0,0,0,0,0,0,0,0,0,0
1568,129,88,16515,525,0,0,0,0,0,0,0,0,0,0,0
1569,129,24,16718,462,0,0,0,0,0,0,0,0,0,0,0
1570,129,-183,16861,419,0,0,0,0,0,0,0,0,0,0,0
1571,129,97,16590,656,0,0,0,0,0,0,0,0,0,0,0
1572,129,74,16740,563,0,0,0,0,0,0,0,0,0,0,0
1573,129,96,16593,306,0,0,0,0,0,0,0,0,0,0,0
1574,129,94,16582,540,0,0,0,0,0,0,0,0,0,0,0
1575,129,-53,16605,334,0,0,0,0,0,0,0,0,0,0,0
1576,129,44,16538,549,0,0,0,0,0,0,0,0,0,0,0
1577,129,156,16668,649,0,0,0,0,0,0,0,0,0,0,0
1578,129,-50,16713,545,0,0,0,0,0,0,0,0,0,0,0
1579,129,25,16537,443,0,0,0,0,0,0,0,0,0,0,0
1580,129,67,16652,622,0,0,0,0,0,0,0,0,0,0,0
1581,129,-3,16856,489,0,0,0,0,0,0,0,0,0,0,0
1582,129,-121,16697,570,0,0,0,0,0,0,0,0,0,0,0
1583,129,217,16531,521,0,0,0,0,0,0,0,0,0,0,0
1584,129,171,16494,596,0,0,0,0,0,0,0,0,0,0,0
1585,129,14,16693,666,0,0,0,0,0,0,0,0,0,0,0
1586,129,-12,16691,504,0,0,0,0,0,0,0,0,0,0,0
1587,129,93,16762,540,0,0,0,0,0,0,0,0,0,0,0
1588,129,138,16770,630,0,0,0,0,0,0,0,0,0,0,0
1589,129,188,16553,664,0,0,0,0,0,0,0,0,0,0,0
1590,129,232,16582,773,0,0,0,0,0,0,0,0,0,0,0
1591,129,-114,16715,475,0,0,0,0,0,0,0,0,0,0,0
1592,129,247,16604,574,0,0,0,0,0,0,0,0,0,0,0
1593,129,166,16596,575,0,0,0,0,0,0,0,0,0,0,0
1594,129,11,16646,605,0,0,0,0,0,0,0,0,0,0,0
1595,129,4,16710,652,0,0,0,0,0,0,0,0,0,0,0
1596,129,371,16598,745,0,0,0,0,0,0,0,0,0,0,0
1597,129,326,16384,663,0,0,0,0,0,0,0,0,0,0,0
1598,129,159,16631,815,0,0,0,0,0,0,0,0,0,0,0
1599,129,202,16717,507,0,0,0,0,0,0,0,0,0,0,0
1600,129,199,16707,560,0,0,0,0,0,0,0,0,0,0,0
1601,129,151,16549,528,0,0,0,0,0,0,0,0,0,0,0
1602,129,221,16722,719,0,0,0,0,0,0,0,0,0,0,0
1603,129,317,16389,535,0,0,0,0,0,0,0,0,0,0,0
1604,129,240,16485,449,0,0,0,0,0,0,0,0,0,0,0
1605,129,178,16433,523,0,0,0,0,0,0,0,0,0,0,0
1606,129,228,16562,717,0,0,0,0,0,0,0,0,0,0,0
1607,129,137,16836,493,0,0,0,0,0,0,0,0,0,0,0
1608,129,311,16593,495,0,0,0,0,0,0,0,0,0,0,0
1609,129,179,16703,594,0,0,0,0,0,0,0,0,0,0,0
1610,129,123,16699,547,0,0,0,0,0,0,0,0,0,0,0
1611,129,219,16618,624,0,0,0,0,0,0,0,0,0,0,0
1612,129,248,16673,651,0,0,0,0,0,0,0,0,0,0,0
1613,129,164,16666,621,0,0,0,0,0,0,0,0,0,0,0
1614,129,195,16613,783,0,0,0,0,0,0,0,0,0,0,0
1615,129,262,16683,631,0,0,0,0,0,0,0,0,0,0,0
1616,129,172,16608,651,0,0,0,0,0,0,0,0,0,0,0
1617,129,156,16570,694,0,0,0,0,0,0,0,0,0,0,0
1618,129,287,17011,758,0,0,0,0,0,0,0,0,0,0,0
1619,129,190,16749,593,0,0,0,0,0,0,0,0,0,0,0
1620,129,186,16680,832,0,0,0,0,0,0,0,0,0,0,0
1621,129,234,16525,581,0,0,0,0,0,0,0,0,0,0,0
1622,129,194,16661,548,0,0,0,0,0,0,0,0,0,0,0
1623,129,74,16551,593,0,0,0,0,0,0,0,0,0,0,0
1624,129,189,16593,673,0,0,0,0,0,0,0,0,0,0,0
1625,129,204,16614,731,0,0,0,0,0,0,0,0,0,0,0
1626,129,130,16511,593,0,0,0,0,0,0,0,0,0,0,0
1627,129,86,16684,585,0,0,0,0,0,0,0,0,0,0,0
1628,129,145,16590,722,0,0,0,0,0,0,0,0,0,0,0
1629,129,178,16733,598,0,0,0,0,0,0,0,0,0,0,0
1630,129,161,16608,541,0,0,0,0,0,0,0,0,0,0,0
1631,129,75,16668,704,0,0,0,0,0,0,0,0,0,0,0
1632,129,118,16603,658,0,0,0,0,0,0,0,0,0,0,0
1633,129,181,16647,645,0,0,0,0,0,0,0,0,0,0,0
1634,129,122,16647,731,0,0,0,0,0,0,0,0,0,0,0
1635,129,149,16617,567,0,0,0,0,0,0,0,0,0,0,0
1636,129,101,16584,674,0,0,0,0,0,0,0,0,0,0,0
1637,129,111,16615,778,0,0,0,0,0,0,0,0,0,0,0
1638,129,168,16679,656,0,0,0,0,0,0,0,0,0,0,0
1639,129,95,16648,566,0,0,0,0,0,0,0,0,0,0,0
1640,129,155,16574,668,0,0,0,0,0,0,0,0,0,0,0
1641,129,202,16625,673,0,0,0,0,0,0,0,0,0,0,0
1642,129,91,16687,713,0,0,0,0,0,0,0,0,0,0,0
1643,129,156,16562,704,0,0,0,0,0,0,0,0,0,0,0
1644,129,162,16640,723,0,0,0,0,0,0,0,0,0,0,0
1645,129,127,16714,645,0,0,0,0,0,0,0,0,0,0,0
1646,129,149,16596,774,0,0,0,0,0,0,0,0,0,0,0
1647,129,160,16552,730,0,0,0,0,0,0,0,0,0,0,0
1648,129,152,16590,848,0,0,0,0,0,0,0,0,0,0,0
1649,129,117,16645,603,0,0,0,0,0,0,0,0,0,0,0
1650,129,100,16643,774,0,0,0,0,0,0,0,0,0,0,0
1651,129,121,16637,627,0,0,0,0,0,0,0,0,0,0,0
1652,129,61,16588,835,0,0,0,0,0,0,0,0,0,0,0
1653,129,12,16630,609,0,0,0,0,0,0,0,0,0,0,0
1654,129,160,16596,780,0,0,0,0,0,0,0,0,0,0,0
1655,129,103,16579,670,0,0,0,0,0,0,0,0,0,0,0
1656,129,32,16699,678,0,0,0,0,0,0,0,0,0,0,0
1657,129,55,16643,652,0,0,0,0,0,0,0,0,0,0,0
1658,129,112,16587,746,0,0,0,0,0,0,0,0,0,0,0
1659,129,57,16663,624,0,0,0,0,0,0,0,0,0,0,0
1660,129,63,16650,664,0,0,0,0,0,0,0,0,0,0,0
1661,129,75,16609,540,0,0,0,0,0,0,0,0,0,0,0
1662,129,63,16633,606,0,0,0,0,0,0,0,0,0,0,0
1663,129,233,16612,584,0,0,0,0,0,0,0,0,0,0,0
1664,129,103,16635,618,0,0,0,0,0,0,0,0,0,0,0
1665,129,81,16656,696,0,0,0,0,0,0,0,0,0,0,0
1666,129,89,16673,706,0,0,0,0,0,0,0,0,0,0,0
1667,129,67,16652,648,0,0,0,0,0,0,0,0,0,0,0
1668,129,174,16689,698,0,0,0,0,0,0,0,0,0,0,0
1669,129,119,16687,483,0,0,0,0,0,0,0,0,0,0,0
1670,129,-4,16596,694,0,0,0,0,0,0,0,0,0,0,0
1671,129,62,16582,741,0,0,0,0,0,0,0,0,0,0,0
1672,129,46,16742,826,0,0,0,0,0,0,0,0,0,0,0
1673,129,67,16770,565,0,0,0,0,0,0,0,0,0,0,0
1674,129,99,16584,626,0,0,0,0,0,0,0,0,0,0,0
1675,129,93,16666,630,0,0,0,0,0,0,0,0,0,0,0
1676,129,37,16737,601,0,0,0,0,0,0,0,0,0,0,0
1677,129,62,16616,662,0,0,0,0,0,0,0,0,0,0,0
1678,129,-36,16681,663,0,0,0,0,0,0,0,0,0,0,0
1679,129,39,16647,598,0,0,0,0,0,0,0,0,0,0,0
1680,129,24,16625,649,0,0,0,0,0,0,0,0,0,0,0
1681,129,-28,16651,647,0,0,0,0,0,0,0,0,0,0,0
1682,129,107,16568,616,0,0,0,0,0,0,0,0,0,0,0
1683,129,22,16610,625,0,0,0,0,0,0,0,0,0,0,0
1684,129,125,16651,701,0,0,0,0,0,0,0,0,0,0,0
1685,129,10,16628,681,0,0,0,0,0,0,0,0,0,0,0
1686,129,80,16636,642,0,0,0,0,0,0,0,0,0,0,0
1687,129,88,16570,663,0,0,0,0,0,0,0,0,0,0,0
1688,129,66,16628,638,0,0,0,0,0,0,0,0,0,0,0
1689,129,77,16681,756,0,0,0,0,0,0,0,0,0,0,0
1690,129,18,16651,763,0,0,0,0,0,0,0,0,0,0,0
1691,129,43,16651,604,0,0,0,0,0,0,0,0,0,0,0
1692,129,28,16602,585,0,0,0,0,0,0,0,0,0,0,0
1693,129,98,16604,580,0,0,0,0,0,0,0,0,0,0,0
1694,129,79,16701,775,0,0,0,0,0,0,0,0,0,0,0
1695,129,44,16698,702,0,0,0,0,0,0,0,0,0,0,0
1696,129,0,16716,712,0,0,0,0,0,0,0,0,0,0,0
1697,129,-38,16601,696,0,0,0,0,0,0,0,0,0,0,0
1698,129,28,16715,654,0,0,0,0,0,0,0,0,0,0,0
1699,129,-15,16654,721,0,0,0,0,0,0,0,0,0,0,0
1700,129,-58,16657,784,0,0,0,0,0,0,0,0,0,0,0
1701,129,-1972,17147,351,0,0,0,0,0,0,0,0,0,0,0
1702,129,-237,16609,913,0,0,0,0,0,0,0,0,0,0,0
1703,129,-191,16605,778,0,0,0,0,0,0,0,0,0,0,0
1704,129,-216,16724,1019,0,0,0,0,0,0,0,0,0,0,0
1705,129,-446,16582,1162,0,0,0,0,0,0,0,0,0,0,0
1706,129,-561,16193,1622,0,0,0,0,0,0,0,0,0,0,0
1707,129,-618,16497,1503,0,0,0,0,0,0,0,0,0,0,0
1708,129,-354,16590,1693,0,0,0,0,0,0,0,0,0,0,0
1709,129,-200,16422,1719,0,0,0,0,0,0,0,0,0,0,0
1710,129,1181,15945,3086,0,0,0,0,0,0,0,0,0,0,0
1711,129,-1414,18129,1713,0,0,0,0,0,0,0,0,0,0,0
1712,129,-1658,16629,2386,0,0,0,0,0,0,0,0,0,0,0
1713,129,-2599,16657,1255,0,0,0,0,0,0,0,0,0,0,0
1714,129,-592,16307,2118,0,0,0,0,0,0,0,0,0,0,0
1715,129,-483,16310,2252,0,0,0,0,0,0,0,0,0,0,0
1716,129,-408,16282,2340,0,0,0,0,0,0,0,0,0,0,0
1717,129,30,16650,2443,0,0,0,0,0,0,0,0,0,0,0
1718,129,-155,16359,2334,0,0,0,0,0,0,0,0,0,0,0
1719,129,-374,16263,2378,0,0,0,0,0,0,0,0,0,0,0
1720,129,-162,16537,2130,0,0,0,0,0,0,0,0,0,0,0
1721,129,-250,16455,2232,0,0,0,0,0,0,0,0,0,0,0
1722,129,-326,16397,2256,0,0,0,0,0,0,0,0,0,0,0
1723,129,-114,16400,2355,0,0,0,0,0,0,0,0,0,0,0
1724,129,-4968,18257,-1472,0,0,0,0,0,0,0,0,0,0,0
1725,129,-967,16667,1662,0,0,0,0,0,0,0,0,0,0,0
1726,129,-444,16379,1729,0,0,0,0,0,0,0,0,0,0,0
1727,129,711,16195,2761,0,0,0,0,0,0,0,0,0,0,0
1728,129,1201,16065,3225,0,0,0,0,0,0,0,0,0,0,0
1729,129,-240,16298,2227,0,0,0,0,0,0,0,0,0,0,0
1730,129,-169,16438,2133,0,0,0,0,0,0,0,0,0,0,0
1731,129,-175,16370,2132,0,0,0,0,0,0,0,0,0,0,0
1732,129,-176,16456,2037,0,0,0,0,0,0,0,0,0,0,0
1733,129,-218,16444,1781,0,0,0,0,0,0,0,0,0,0,0
1734,129,-119,16599,1774,0,0,0,0,0,0,0,0,0,0,0
1735,129,-117,16562,1636,0,0,0,0,0,0,0,0,0,0,0
1736,129,-97,16468,1980,0,0,0,0,0,0,0,0,0,0,0
1737,129,-177,16475,1794,0,0,0,0,0,0,0,0,0,0,0
1738,129,-132,16467,1934,0,0,0,0,0,0,0,0,0,0,0
1739,129,-240,16385,1764,0,0,0,0,0,0,0,0,0,0,0
1740,129,-146,16433,1742,0,0,0,0,0,0,0,0,0,0,0
1741,129,-81,16492,1817,0,0,0,0,0,0,0,0,0,0,0
1742,129,-161,16473,1784,0,0,0,0,0,0,0,0,0,0,0
1743,129,-2225,17024,671,0,0,0,0,0,0,0,0,0,0,0
1744,129,-957,16749,1133,0,0,0,0,0,0,0,0,0,0,0
1745,129,289,16283,1912,0,0,0,0,0,0,0,0,0,0,0
1746,129,-123,16587,1957,0,0,0,0,0,0,0,0,0,0,0
1747,129,-136,16518,1609,0,0,0,0,0,0,0,0,0,0,0
1748,129,-186,16617,1617,0,0,0,0,0,0,0,0,0,0,0
1749,129,-373,16346,1442,0,0,0,0,0,0,0,0,0,0,0
1750,129,-200,16638,1469,0,0,0,0,0,0,0,0,0,0,0
1751,129,-316,16514,1451,0,0,0,0,0,0,0,0,0,0,0
1752,129,-299,16625,1438,0,0,0,0,0,0,0,0,0,0,0
1753,129,-238,16598,1355,0,0,0,0,0,0,0,0,0,0,0
1754,129,-264,16576,1522,0,0,0,0,0,0,0,0,0,0,0
1755,129,-288,16620,1632,0,0,0,0,0,0,0,0,0,0,0
1756,129,-325,16448,1620,0,0,0,0,0,0,0,0,0,0,0
1757,129,-379,16485,1681,0,0,0,0,0,0,0,0,0,0,0
1758,129,-484,16426,1639,0,0,0,0,0,0,0,0,0,0,0
1759,129,-1340,16505,1833,0,0,0,0,0,0,0,0,0,0,0
1760,129,-332,16349,1838,0,0,0,0,0,0,0,0,0,0,0
1761,129,-274,16663,1768,0,0,0,0,0,0,0,0,0,0,0
1762,129,-306,16485,1650,0,0,0,0,0,0,0,0,0,0,0
1763,129,-214,16506,1722,0,0,0,0,0,0,0,0,0,0,0
1764,129,-426,16869,1399,0,0,0,0,0,0,0,0,0,0,0
1765,129,-426,16220,1896,0,0,0,0,0,0,0,0,0,0,0
1766,129,-70,16638,1231,0,0,0,0,0,0,0,0,0,0,0
1767,129,-354,16615,1345,0,0,0,0,0,0,0,0,0,0,0
1768,129,-303,16443,1153,0,0,0,0,0,0,0,0,0,0,0
1769,129,-162,16604,1300,0,0,0,0,0,0,0,0,0,0,0
1770,129,-304,16519,1457,0,0,0,0,0,0,0,0,0,0,0
1771,129,-211,16660,1454,0,0,0,0,0,0,0,0,0,0,0
1772,129,-177,16416,1591,0,0,0,0,0,0,0,0,0,0,0
1773,129,-128,16520,1599,0,0,0,0,0,0,0,0,0,0,0
1774,129,-282,16500,1639,0,0,0,0,0,0,0,0,0,0,0
1775,129,-215,16509,1598,0,0,0,0,0,0,0,0,0,0,0
1776,129,-296,16471,1598,0,0,0,0,0,0,0,0,0,0,0
1777,129,-316,16577,1677,0,0,0,0,0,0,0,0,0,0,0
1778,129,-327,16405,1731,0,0,0,0,0,0,0,0,0,0,0
1779,129,-289,16437,1638,0,0,0,0,0,0,0,0,0,0,0
1780,129,-190,16569,1679,0,0,0,0,0,0,0,0,0,0,0
1781,129,-222,16572,1690,0,0,0,0,0,0,0,0,0,0,0
1782,129,-155,16559,1565,0,0,0,0,0,0,0,0,0,0,0
1783,129,-405,16502,1519,0,0,0,0,0,0,0,0,0,0,0
1784,129,-281,16556,1528,0,0,0,0,0,0,0,0,0,0,0
1785,129,-323,16414,1480,0,0,0,0,0,0,0,0,0,0,0
1786,129,-382,16533,1530,0,0,0,0,0,0,0,0,0,0,0
1787,129,-285,16604,1666,0,0,0,0,0,0,0,0,0,0,0
1788,129,-481,16323,1898,0,0,0,0,0,0,0,0,0,0,0
1789,129,-404,16395,1764,0,0,0,0,0,0,0,0,0,0,0
1790,129,-224,16496,1939,0,0,0,0,0,0,0,0,0,0,0
1791,129,-222,16454,1841,0,0,0,0,0,0,0,0,0,0,0
1792,129,-296,16492,1894,0,0,0,0,0,0,0,0,0,0,0
1793,129,-411,16409,1978,0,0,0,0,0,0,0,0,0,0,0
1794,129,-456,16295,1886,0,0,0,0,0,0,0,0,0,0,0
1795,129,-276,16449,2032,0,0,0,0,0,0,0,0,0,0,0
1796,129,-286,17013,1926,0,0,0,0,0,0,0,0,0,0,0
1797,129,-391,16043,1703,0,0,0,0,0,0,0,0,0,0,0
1798,129,-15,16723,1974,0,0,0,0,0,0,0,0,0,0,0
1799,129,-267,16424,1572,0,0,0,0,0,0,0,0,0,0,0
1800,129,-375,16237,1817,0,0,0,0,0,0,0,0,0,0,0
1801,129,-217,16705,1832,0,0,0,0,0,0,0,0,0,0,0
1802,129,-368,16435,1463,0,0,0,0,0,0,0,0,0,0,0
1803,129,-391,16514,1813,0,0,0,0,0,0,0,0,0,0,0
1804,129,-370,16667,1783,0,0,0,0,0,0,0,0,0,0,0
1805,129,-330,16431,1719,0,0,0,0,0,0,0,0,0,0,0
1806,129,-337,16381,1869,0,0,0,0,0,0,0,0,0,0,0
1807,129,-334,16559,1681,0,0,0,0,0,0,0,0,0,0,0
1808,129,-395,16475,1703,0,0,0,0,0,0,0,0,0,0,0
1809,129,-259,16479,1715,0,0,0,0,0,0,0,0,0,0,0
1810,129,-348,16545,1864,0,0,0,0,0,0,0,0,0,0,0
1811,129,-537,16376,2026,0,0,0,0,0,0,0,0,0,0,0
1812,129,-509,16345,2188,0,0,0,0,0,0,0,0,0,0,0
1813,129,-563,16353,1991,0,0,0,0,0,0,0,0,0,0,0
1814,129,-585,16389,2033,0,0,0,0,0,0,0,0,0,0,0
1815,129,-452,16446,1876,0,0,0,0,0,0,0,0,0,0,0
1816,129,-582,16494,1777,0,0,0,0,0,0,0,0,0,0,0
1817,129,-2154,16286,951,0,0,0,0,0,0,0,0,0,0,0
1818,129,-254,16347,1857,0,0,0,0,0,0,0,0,0,0,0
1819,129,-1155,16886,2097,0,0,0,0,0,0,0,0,0,0,0
1820,129,-828,16418,1909,0,0,0,0,0,0,0,0,0,0,0
1821,129,-1115,16533,2368,0,0,0,0,0,0,0,0,0,0,0
1822,129,-469,16595,1611,0,0,0,0,0,0,0,0,0,0,0
1823,129,305,16631,1404,0,0,0,0,0,0,0,0,0,0,0
1824,129,-385,16615,1373,0,0,0,0,0,0,0,0,0,0,0
1825,129,-465,16527,1529,0,0,0,0,0,0,0,0,0,0,0
1826,129,-97,16636,917,0,0,0,0,0,0,0,0,0,0,0
1827,129,-970,16525,1508,0,0,0,0,0,0,0,0,0,0,0
1828,129,-1068,15995,3032,0,0,0,0,0,0,0,0,0,0,0
1829,129,-860,15847,2965,0,0,0,0,0,0,0,0,0,0,0
1830,129,-438,16540,2760,0,0,0,0,0,0,0,0,0,0,0
1831,129,-696,16227,2036,0,0,0,0,0,0,0,0,0,0,0
1832,129,-1485,16044,8449,0,0,0,0,0,0,0,0,0,0,0
1833,129,-967,16004,1563,0,0,0,0,0,0,0,0,0,0,0
1834,129,-520,16545,1964,0,0,0,0,0,0,0,0,0,0,0
1835,129,-824,16255,1585,0,0,0,0,0,0,0,0,0,0,0
1836,129,-441,16614,1626,0,0,0,0,0,0,0,0,0,0,0
1837,129,-486,16472,1952,0,0,0,0,0,0,0,0,0,0,0
1838,129,-693,16331,2255,0,0,0,0,0,0,0,0,0,0,0
1839,129,-1379,16185,2455,0,0,0,0,0,0,0,0,0,0,0
1840,129,-735,16293,2174,0,0,0,0,0,0,0,0,0,0,0
1841,129,-640,16498,2068,0,0,0,0,0,0,0,0,0,0,0
1842,129,-523,16505,2011,0,0,0,0,0,0,0,0,0,0,0
1843,129,-569,16564,1900,0,0,0,0,0,0,0,0,0,0,0
1844,129,-632,16497,1842,0,0,0,0,0,0,0,0,0,0,0
1845,129,-697,16420,1874,0,0,0,0,0,0,0,0,0,0,0
1846,129,-645,16501,1908,0,0,0,0,0,0,0,0,0,0,0
1847,129,-971,16237,1683,0,0,0,0,0,0,0,0,0,0,0
1848,129,-754,16629,1932,0,0,0,0,0,0,0,0,0,0,0
1849,129,-874,16606,1844,0,0,0,0,0,0,0,0,0,0,0
1850,129,-1514,17452,1763,0,0,0,0,0,0,0,0,0,0,0
1851,129,-2052,16907,1710,0,0,0,0,0,0,0,0,0,0,0
1852,129,-1697,16211,2003,0,0,0,0,0,0,0,0,0,0,0
1853,129,-742,16301,2070,0,0,0,0,0,0,0,0,0,0,0
1854,129,-693,16344,2053,0,0,0,0,0,0,0,0,0,0,0
1855,129,-824,16582,1745,0,0,0,0,0,0,0,0,0,0,0
1856,129,-1244,16639,1596,0,0,0,0,0,0,0,0,0,0,0
1857,129,-1395,16909,834,0,0,0,0,0,0,0,0,0,0,0
1858,129,-734,16448,1806,0,0,0,0,0,0,0,0,0,0,0
1859,129,-610,16563,1509,0,0,0,0,0,0,0,0,0,0,0
1860,129,-467,16692,1638,0,0,0,0,0,0,0,0,0,0,0
1861,129,-731,16539,1807,0,0,0,0,0,0,0,0,0,0,0
1862,129,-784,16399,1923,0,0,0,0,0,0,0,0,0,0,0
1863,129,-913,16306,2070,0,0,0,0,0,0,0,0,0,0,0
1864,129,-818,16174,2076,0,0,0,0,0,0,0,0,0,0,0
1865,129,-717,16365,1978,0,0,0,0,0,0,0,0,0,0,0
1866,129,-648,16365,2006,0,0,0,0,0,0,0,0,0,0,0
1867,129,-502,16551,1742,0,0,0,0,0,0,0,0,0,0,0
1868,129,-478,16083,1688,0,0,0,0,0,0,0,0,0,0,0
1869,129,-723,16750,1778,0,0,0,0,0,0,0,0,0,0,0
1870,129,-347,16763,1729,0,0,0,0,0,0,0,0,0,0,0
1871,129,-605,16274,1455,0,0,0,0,0,0,0,0,0,0,0
1872,129,-401,16503,1767,0,0,0,0,0,0,0,0,0,0,0
1873,129,-567,16532,2005,0,0,0,0,0,0,0,0,0,0,0
1874,129,-497,16474,2099,0,0,0,0,0,0,0,0,0,0,0
1875,129,-637,16304,2292,0,0,0,0,0,0,0,0,0,0,0
1876,129,-614,16394,2393,0,0,0,0,0,0,0,0,0,0,0
1877,129,-524,16334,2485,0,0,0,0,0,0,0,0,0,0,0
1878,129,-586,16274,2474,0,0,0,0,0,0,0,0,0,0,0
1879,129,-532,16321,2253,0,0,0,0,0,0,0,0,0,0,0
1880,129,-457,16455,2108,0,0,0,0,0,0,0,0,0,0,0
1881,129,-614,16321,1908,0,0,0,0,0,0,0,0,0,0,0
1882,129,-552,16397,1916,0,0,0,0,0,0,0,0,0,0,0
1883,129,-548,16489,1783,0,0,0,0,0,0,0,0,0,0,0
1884,129,-527,16567,1974,0,0,0,0,0,0,0,0,0,0,0
1885,129,-459,16405,2127,0,0,0,0,0,0,0,0,0,0,0
1886,129,-482,16388,2190,0,0,0,0,0,0,0,0,0,0,0
1887,129,-577,16367,2411,0,0,0,0,0,0,0,0,0,0,0
1888,129,-655,16282,2403,0,0,0,0,0,0,0,0,0,0,0
1889,129,-549,16434,2436,0,0,0,0,0,0,0,0,0,0,0
1890,129,-563,16294,2254,0,0,0,0,0,0,0,0,0,0,0
1891,129,-465,16431,2227,0,0,0,0,0,0,0,0,0,0,0
1892,129,-441,16367,2247,0,0,0,0,0,0,0,0,0,0,0
1893,129,-525,16442,2272,0,0,0,0,0,0,0,0,0,0,0
1894,129,-499,16428,2261,0,0,0,0,0,0,0,0,0,0,0
1895,129,-571,16357,2491,0,0,0,0,0,0,0,0,0,0,0
1896,129,-539,16366,2509,0,0,0,0,0,0,0,0,0,0,0
1897,129,-625,16283,2463,0,0,0,0,0,0,0,0,0,0,0
1898,129,-628,16187,2634,0,0,0,0,0,0,0,0,0,0,0
1899,129,-586,16262,2492,0,0,0,0,0,0,0,0,0,0,0
1900,129,-500,16224,2410,0,0,0,0,0,0,0,0,0,0,0
1901,129,-395,16348,2505,0,0,0,0,0,0,0,0,0,0,0
1902,129,630,15860,2375,0,0,0,0,0,0,0,0,0,0,0
1903,129,176,16548,2197,0,0,0,0,0,0,0,0,0,0,0
1904,129,-44,16404,2146,0,0,0,0,0,0,0,0,0,0,0
1905,129,-497,16283,2011,0,0,0,0,0,0,0,0,0,0,0
1906,129,-427,16365,1989,0,0,0,0,0,0,0,0,0,0,0
1907,129,-340,16520,2034,0,0,0,0,0,0,0,0,0,0,0
1908,129,-407,16421,2288,0,0,0,0,0,0,0,0,0,0,0
1909,129,-479,16361,1935,0,0,0,0,0,0,0,0,0,0,0
1910,129,-403,16380,2151,0,0,0,0,0,0,0,0,0,0,0
1911,129,-387,16558,2259,0,0,0,0,0,0,0,0,0,0,0
1912,129,-7,16679,1996,0,0,0,0,0,0,0,0,0,0,0
1913,129,33,16335,1941,0,0,0,0,0,0,0,0,0,0,0
1914,129,-1210,17167,1954,0,0,0,0,0,0,0,0,0,0,0
1915,129,-205,16384,1171,0,0,0,0,0,0,0,0,0,0,0
1916,129,-918,16511,1693,0,0,0,0,0,0,0,0,0,0,0
1917,129,-255,16533,1628,0,0,0,0,0,0,0,0,0,0,0
1918,129,-361,16303,2119,0,0,0,0,0,0,0,0,0,0,0
1919,129,-232,16480,1889,0,0,0,0,0,0,0,0,0,0,0
1920,129,-45,16663,1741,0,0,0,0,0,0,0,0,0,0,0
1921,129,-385,16346,1446,0,0,0,0,0,0,0,0,0,0,0
1922,129,79,16640,1601,0,0,0,0,0,0,0,0,0,0,0
1923,129,-1670,16908,1304,0,0,0,0,0,0,0,0,0,0,0
1924,129,-198,16520,1584,0,0,0,0,0,0,0,0,0,0,0
1925,129,120,16431,1765,0,0,0,0,0,0,0,0,0,0,0
1926,129,-36,16458,1646,0,0,0,0,0,0,0,0,0,0,0
1927,129,-186,16442,1506,0,0,0,0,0,0,0,0,0,0,0
1928,129,-156,16595,1593,0,0,0,0,0,0,0,0,0,0,0
1929,129,-153,16471,1548,0,0,0,0,0,0,0,0,0,0,0
1930,129,-71,16549,1608,0,0,0,0,0,0,0,0,0,0,0
1931,129,-310,16507,1676,0,0,0,0,0,0,0,0,0,0,0
1932,129,-441,16447,1612,0,0,0,0,0,0,0,0,0,0,0
1933,129,-229,16614,764,0,0,0,0,0,0,0,0,0,0,0
1934,129,-393,16418,1984,0,0,0,0,0,0,0,0,0,0,0
1935,129,-145,16750,1064,0,0,0,0,0,0,0,0,0,0,0
1936,129,-133,16877,-30,0,0,0,0,0,0,0,0,0,0,0
1937,129,-267,16474,1019,0,0,0,0,0,0,0,0,0,0,0
1938,129,-257,16632,1321,0,0,0,0,0,0,0,0,0,0,0
1939,129,-221,16607,1019,0,0,0,0,0,0,0,0,0,0,0
1940,129,-146,16691,883,0,0,0,0,0,0,0,0,0,0,0
1941,129,-277,16684,1020,0,0,0,0,0,0,0,0,0,0,0
1942,129,-452,16533,996,0,0,0,0,0,0,0,0,0,0,0
1943,129,-474,16458,977,0,0,0,0,0,0,0,0,0,0,0
1944,129,-553,16731,986,0,0,0,0,0,0,0,0,0,0,0
1945,129,-532,16631,1028,0,0,0,0,0,0,0,0,0,0,0
1946,129,-669,16556,1075,0,0,0,0,0,0,0,0,0,0,0
1947,129,-702,16536,859,0,0,0,0,0,0,0,0,0,0,0
1948,129,-573,16648,987,0,0,0,0,0,0,0,0,0,0,0
1949,129,-708,16552,961,0,0,0,0,0,0,0,0,0,0,0
1950,129,-661,16499,951,0,0,0,0,0,0,0,0,0,0,0
1951,129,-656,16514,1145,0,0,0,0,0,0,0,0,0,0,0
1952,129,-466,16646,1177,0,0,0,0,0,0,0,0,0,0,0
1953,129,-444,16692,1033,0,0,0,0,0,0,0,0,0,0,0
1954,129,-443,16648,1089,0,0,0,0,0,0,0,0,0,0,0
1955,129,-474,16623,1018,0,0,0,0,0,0,0,0,0,0,0
1956,129,-663,16526,995,0,0,0,0,0,0,0,0,0,0,0
1957,129,-549,16526,869,0,0,0,0,0,0,0,0,0,0,0
1958,129,-484,16734,636,0,0,0,0,0,0,0,0,0,0,0
1959,129,-452,16692,520,0,0,0,0,0,0,0,0,0,0,0
1960,129,-347,16609,704,0,0,0,0,0,0,0,0,0,0,0
1961,129,-287,16684,502,0,0,0,0,0,0,0,0,0,0,0
1962,129,-240,16797,743,0,0,0,0,0,0,0,0,0,0,0
1963,129,-237,16652,596,0,0,0,0,0,0,0,0,0,0,0
1964,129,-239,16654,688,0,0,0,0,0,0,0,0,0,0,0
1965,129,-179,16703,535,0,0,0,0,0,0,0,0,0,0,0
1966,129,-235,16664,616,0,0,0,0,0,0,0,0,0,0,0
1967,129,-233,16497,575,0,0,0,0,0,0,0,0,0,0,0
1968,129,-200,16642,473,0,0,0,0,0,0,0,0,0,0,0
1969,129,-227,16714,605,0,0,0,0,0,0,0,0,0,0,0
1970,129,-177,16981,796,0,0,0,0,0,0,0,0,0,0,0
1971,129,-9011,17932,5989,0,0,0,0,0,0,0,0,0,0,0
1972,129,2677,16112,-1968,0,0,0,0,0,0,0,0,0,0,0
1973,129,2670,16323,-1327,0,0,0,0,0,0,0,0,0,0,0
1974,129,-1086,16910,1019,0,0,0,0,0,0,0,0,0,0,0
1975,129,-21,16846,665,0,0,0,0,0,0,0,0,0,0,0
1976,129,-187,16675,681,0,0,0,0,0,0,0,0,0,0,0
1977,129,-100,16705,453,0,0,0,0,0,0,0,0,0,0,0
1978,129,-253,16699,592,0,0,0,0,0,0,0,0,0,0,0
1979,129,-294,16594,537,0,0,0,0,0,0,0,0,0,0,0
1980,129,-259,16659,650,0,0,0,0,0,0,0,0,0,0,0
1981,129,-228,16616,608,0,0,0,0,0,0,0,0,0,0,0
1982,129,-115,16709,598,0,0,0,0,0,0,0,0,0,0,0
1983,129,-267,16635,546,0,0,0,0,0,0,0,0,0,0,0
1984,129,-200,16711,711,0,0,0,0,0,0,0,0,0,0,0
1985,129,-210,16598,632,0,0,0,0,0,0,0,0,0,0,0
1986,129,-57,16779,608,0,0,0,0,0,0,0,0,0,0,0
1987,129,-125,16706,402,0,0,0,0,0,0,0,0,0,0,0
1988,129,-105,16655,464,0,0,0,0,0,0,0,0,0,0,0
1989,129,-127,16704,342,0,0,0,0,0,0,0,0,0,0,0
1990,129,-196,16608,335,0,0,0,0,0,0,0,0,0,0,0
1991,129,-116,16730,281,0,0,0,0,0,0,0,0,0,0,0
1992,129,-153,16751,291,0,0,0,0,0,0,0,0,0,0,0
1993,129,-57,16823,117,0,0,0,0,0,0,0,0,0,0,0
1994,129,-155,16624,119,0,0,0,0,0,0,0,0,0,0,0
1995,129,74,16752,138,0,0,0,0,0,0,0,0,0,0,0
1996,129,128,16802,257,0,0,0,0,0,0,0,0,0,0,0
1997,129,84,16626,164,0,0,0,0,0,0,0,0,0,0,0
1998,129,5,16726,97,0,0,0,0,0,0,0,0,0,0,0
1999,129,-98,16710,211,0,0,0,0,0,0,0,0,0,0,0
2000,129,-165,16662,182,0,0,0,0,0,0,0,0,0,0,0
2001,129,-194,16757,106,0,0,0,0,0,0,0,0,0,0,0
2002,129,-102,16732,105,0,0,0,0,0,0,0,0,0,0,0
2003,129,-166,16672,70,0,0,0,0,0,0,0,0,0,0,0
2004,129,-148,16680,116,0,0,0,0,0,0,0,0,0,0,0
2005,129,-235,16708,127,0,0,0,0,0,0,0,0,0,0,0
2006,129,-270,16631,204,0,0,0,0,0,0,0,0,0,0,0
2007,129,-319,16766,209,0,0,0,0,0,0,0,0,0,0,0
2008,129,-257,16599,180,0,0,0,0,0,0,0,0,0,0,0
2009,129,-248,16600,264,0,0,0,0,0,0,0,0,0,0,0
2010,129,-273,16719,101,0,0,0,0,0,0,0,0,0,0,0
2011,129,-282,16741,35,0,0,0,0,0,0,0,0,0,0,0
2012,129,-295,16646,108,0,0,0,0,0,0,0,0,0,0,0
2013,129,-273,16775,8,0,0,0,0,0,0,0,0,0,0,0
2014,129,-288,16701,212,0,0,0,0,0,0,0,0,0,0,0
2015,129,-595,16634,138,0,0,0,0,0,0,0,0,0,0,0
2016,129,-609,16611,-97,0,0,0,0,0,0,0,0,0,0,0
2017,129,-609,16608,48,0,0,0,0,0,0,0,0,0,0,0
2018,129,-674,16654,105,0,0,0,0,0,0,0,0,0,0,0
2019,129,-633,16693,-175,0,0,0,0,0,0,0,0,0,0,0
2020,129,-688,16714,0,0,0,0,0,0,0,0,0,0,0,0
2021,129,-666,16670,-61,0,0,0,0,0,0,0,0,0,0,0
2022,129,-625,16742,37,0,0,0,0,0,0,0,0,0,0,0
2023,129,-582,16740,-72,0,0,0,0,0,0,0,0,0,0,0
2024,129,-572,16763,-25,0,0,0,0,0,0,0,0,0,0,0
2025,129,-423,16682,-128,0,0,0,0,0,0,0,0,0,0,0
2026,129,-533,16744,-101,0,0,0,0,0,0,0,0,0,0,0
2027,129,-470,16663,-33,0,0,0,0,0,0,0,0,0,0,0
2028,129,-553,16711,-42,0,0,0,0,0,0,0,0,0,0,0
2029,129,-631,16737,-30,0,0,0,0,0,0,0,0,0,0,0
2030,129,-768,16553,11,0,0,0,0,0,0,0,0,0,0,0
2031,129,-697,16740,-1,0,0,0,0,0,0,0,0,0,0,0
2032,129,-623,16779,-92,0,0,0,0,0,0,0,0,0,0,0
2033,129,-719,16702,-170,0,0,0,0,0,0,0,0,0,0,0
2034,129,-663,16624,-112,0,0,0,0,0,0,0,0,0,0,0
2035,129,-645,16715,-103,0,0,0,0,0,0,0,0,0,0,0
2036,129,-450,16822,-187,0,0,0,0,0,0,0,0,0,0,0
2037,129,-379,16740,-67,0,0,0,0,0,0,0,0,0,0,0
2038,129,-301,16796,-147,0,0,0,0,0,0,0,0,0,0,0
2039,129,-309,16809,-295,0,0,0,0,0,0,0,0,0,0,0
2040,129,-325,16791,-204,0,0,0,0,0,0,0,0,0,0,0
2041,129,-341,16642,-189,0,0,0,0,0,0,0,0,0,0,0
2042,129,-495,16696,-305,0,0,0,0,0,0,0,0,0,0,0
2043,129,-413,16698,-310,0,0,0,0,0,0,0,0,0,0,0
2044,129,-452,16715,-306,0,0,0,0,0,0,0,0,0,0,0
2045,129,-528,16644,-364,0,0,0,0,0,0,0,0,0,0,0
2046,129,-383,16693,-289,0,0,0,0,0,0,0,0,0,0,0
2047,129,-459,16668,-386,0,0,0,0,0,0,0,0,0,0,0
2048,129,-516,16791,-408,0,0,0,0,0,0,0,0,0,0,0
2049,129,-567,16704,-343,0,0,0,0,0,0,0,0,0,0,0
2050,129,-479,16837,-281,0,0,0,0,0,0,0,0,0,0,0
2051,129,-571,16722,-253,0,0,0,0,0,0,0,0,0,0,0
2052,129,-530,16644,-358,0,0,0,0,0,0,0,0,0,0,0
2053,129,-644,16645,-383,0,0,0,0,0,0,0,0,0,0,0
2054,129,-543,16748,-393,0,0,0,0,0,0,0,0,0,0,0
2055,129,-521,16767,-328,0,0,0,0,0,0,0,0,0,0,0
2056,129,-506,16864,-403,0,0,0,0,0,0,0,0,0,0,0
2057,129,-417,16727,-459,0,0,0,0,0,0,0,0,0,0,0
2058,129,-451,16803,-417,0,0,0,0,0,0,0,0,0,0,0
2059,129,-336,16741,-460,0,0,0,0,0,0,0,0,0,0,0
2060,129,-154,16784,-517,0,0,0,0,0,0,0,0,0,0,0
2061,129,-695,16815,-156,0,0,0,0,0,0,0,0,0,0,0
2062,129,-865,16812,4,0,0,0,0,0,0,0,0,0,0,0
2063,129,-727,16770,299,0,0,0,0,0,0,0,0,0,0,0
2064,129,80,16871,-266,0,0,0,0,0,0,0,0,0,0,0
2065,129,271,16686,-671,0,0,0,0,0,0,0,0,0,0,0
2066,129,-254,16712,-333,0,0,0,0,0,0,0,0,0,0,0
2067,129,-288,16664,-434,0,0,0,0,0,0,0,0,0,0,0
2068,129,-223,16751,-315,0,0,0,0,0,0,0,0,0,0,0
2069,129,-272,16647,-320,0,0,0,0,0,0,0,0,0,0,0
2070,129,-202,16743,-344,0,0,0,0,0,0,0,0,0,0,0
2071,129,-207,16659,-329,0,0,0,0,0,0,0,0,0,0,0
2072,129,-255,16686,-208,0,0,0,0,0,0,0,0,0,0,0
2073,129,-184,16755,-138,0,0,0,0,0,0,0,0,0,0,0
2074,129,-222,16735,-205,0,0,0,0,0,0,0,0,0,0,0
2075,129,-135,16717,-352,0,0,0,0,0,0,0,0,0,0,0
2076,129,-134,16734,-154,0,0,0,0,0,0,0,0,0,0,0
2077,129,-66,16737,-325,0,0,0,0,0,0,0,0,0,0,0
2078,129,-83,16773,-323,0,0,0,0,0,0,0,0,0,0,0
2079,129,-240,16718,-283,0,0,0,0,0,0,0,0,0,0,0
2080,129,-350,16726,-269,0,0,0,0,0,0,0,0,0,0,0
2081,129,-285,16697,-442,0,0,0,0,0,0,0,0,0,0,0
2082,129,-374,16626,-336,0,0,0,0,0,0,0,0,0,0,0
2083,129,-150,16757,-358,0,0,0,0,0,0,0,0,0,0,0
2084,129,-232,16726,-443,0,0,0,0,0,0,0,0,0,0,0
2085,129,-233,16710,-371,0,0,0,0,0,0,0,0,0,0,0
2086,129,-153,16757,-228,0,0,0,0,0,0,0,0,0,0,0
2087,129,-219,16743,-237,0,0,0,0,0,0,0,0,0,0,0
2088,129,-4140,17129,1596,0,0,0,0,0,0,0,0,0,0,0
2089,129,-173,16542,332,0,0,0,0,0,0,0,0,0,0,0
2090,129,455,16778,-497,0,0,0,0,0,0,0,0,0,0,0
2091,129,-295,16693,-234,0,0,0,0,0,0,0,0,0,0,0
2092,129,-185,16847,-191,0,0,0,0,0,0,0,0,0,0,0
2093,129,-226,16707,-307,0,0,0,0,0,0,0,0,0,0,0
2094,129,-211,16733,-249,0,0,0,0,0,0,0,0,0,0,0
2095,129,-251,16773,-165,0,0,0,0,0,0,0,0,0,0,0
2096,129,-154,16789,-211,0,0,0,0,0,0,0,0,0,0,0
2097,129,-239,16729,-137,0,0,0,0,0,0,0,0,0,0,0
2098,129,-223,16697,-147,0,0,0,0,0,0,0,0,0,0,0
2099,129,-209,16687,-203,0,0,0,0,0,0,0,0,0,0,0
2100,129,-122,16726,-172,0,0,0,0,0,0,0,0,0,0,0
2101,129,-209,16818,-222,0,0,0,0,0,0,0,0,0,0,0
2102,129,-184,16687,-89,0,0,0,0,0,0,0,0,0,0,0
2103,129,-173,16738,-276,0,0,0,0,0,0,0,0,0,0,0
2104,129,-340,16728,-252,0,0,0,0,0,0,0,0,0,0,0
2105,129,-208,16676,-125,0,0,0,0,0,0,0,0,0,0,0
2106,129,-304,16745,-154,0,0,0,0,0,0,0,0,0,0,0
2107,129,-273,16738,-319,0,0,0,0,0,0,0,0,0,0,0
2108,129,-115,16766,-177,0,0,0,0,0,0,0,0,0,0,0
2109,129,-238,16701,-108,0,0,0,0,0,0,0,0,0,0,0
2110,129,-6197,17499,1997,0,0,0,0,0,0,0,0,0,0,0
2111,129,-2073,17343,856,0,0,0,0,0,0,0,0,0,0,0
2112,129,-207,16843,7,0,0,0,0,0,0,0,0,0,0,0
2113,129,-215,16807,-310,0,0,0,0,0,0,0,0,0,0,0
2114,129,-292,16731,-216,0,0,0,0,0,0,0,0,0,0,0
2115,129,-170,16671,-169,0,0,0,0,0,0,0,0,0,0,0
2116,129,-232,16699,-109,0,0,0,0,0,0,0,0,0,0,0
2117,129,-182,16618,-76,0,0,0,0,0,0,0,0,0,0,0
2118,129,-160,16748,-60,0,0,0,0,0,0,0,0,0,0,0
2119,129,-45,16781,-48,0,0,0,0,0,0,0,0,0,0,0
2120,129,-174,16724,68,0,0,0,0,0,0,0,0,0,0,0
2121,129,-189,16781,-140,0,0,0,0,0,0,0,0,0,0,0
2122,129,-236,16753,-137,0,0,0,0,0,0,0,0,0,0,0
2123,129,-309,16775,-186,0,0,0,0,0,0,0,0,0,0,0
2124,129,-363,16701,-205,0,0,0,0,0,0,0,0,0,0,0
2125,129,-332,16687,-121,0,0,0,0,0,0,0,0,0,0,0
2126,129,-363,16650,-150,0,0,0,0,0,0,0,0,0,0,0
2127,129,-374,16558,-303,0,0,0,0,0,0,0,0,0,0,0
2128,129,-324,16705,-135,0,0,0,0,0,0,0,0,0,0,0
2129,129,-274,16814,-171,0,0,0,0,0,0,0,0,0,0,0
2130,129,-292,16704,-94,0,0,0,0,0,0,0,0,0,0,0
2131,129,-366,16690,-133,0,0,0,0,0,0,0,0,0,0,0
2132,129,-264,16726,-249,0,0,0,0,0,0,0,0,0,0,0
2133,129,-316,16723,-218,0,0,0,0,0,0,0,0,0,0,0
2134,129,-296,16700,-76,0,0,0,0,0,0,0,0,0,0,0
2135,129,-230,16766,-109,0,0,0,0,0,0,0,0,0,0,0
2136,129,-115,16843,-158,0,0,0,0,0,0,0,0,0,0,0
2137,129,-252,16695,-144,0,0,0,0,0,0,0,0,0,0,0
2138,129,-196,16729,8,0,0,0,0,0,0,0,0,0,0,0
2139,129,-314,16687,-199,0,0,0,0,0,0,0,0,0,0,0
2140,129,-188,16717,2,0,0,0,0,0,0,0,0,0,0,0
2141,129,-258,16711,-26,0,0,0,0,0,0,0,0,0,0,0
2142,129,-221,16787,124,0,0,0,0,0,0,0,0,0,0,0
2143,129,-257,16636,-156,0,0,0,0,0,0,0,0,0,0,0
2144,129,-183,16679,24,0,0,0,0,0,0,0,0,0,0,0
2145,129,-241,16750,-5,0,0,0,0,0,0,0,0,0,0,0
2146,129,-275,16775,30,0,0,0,0,0,0,0,0,0,0,0
2147,129,-275,16770,-173,0,0,0,0,0,0,0,0,0,0,0
2148,129,-334,16701,-95,0,0,0,0,0,0,0,0,0,0,0
2149,129,-336,16652,-73,0,0,0,0,0,0,0,0,0,0,0
2150,129,-367,16790,-238,0,0,0,0,0,0,0,0,0,0,0
2151,129,-352,16616,-120,0,0,0,0,0,0,0,0,0,0,0
2152,129,-306,16659,-29,0,0,0,0,0,0,0,0,0,0,0
2153,129,-413,16686,-256,0,0,0,0,0,0,0,0,0,0,0
2154,129,-450,16718,-38,0,0,0,0,0,0,0,0,0,0,0
2155,129,-343,16722,-115,0,0,0,0,0,0,0,0,0,0,0
2156,129,-447,16615,-93,0,0,0,0,0,0,0,0,0,0,0
2157,129,-378,16581,-61,0,0,0,0,0,0,0,0,0,0,0
2158,129,-290,16801,36,0,0,0,0,0,0,0,0,0,0,0
2159,129,-272,16661,30,0,0,0,0,0,0,0,0,0,0,0
2160,129,-268,16703,-30,0,0,0,0,0,0,0,0,0,0,0
2161,129,-218,16734,2,0,0,0,0,0,0,0,0,0,0,0
2162,129,-247,16679,-12,0,0,0,0,0,0,0,0,0,0,0
2163,129,-334,16719,-89,0,0,0,0,0,0,0,0,0,0,0
2164,129,-358,16747,-3,0,0,0,0,0,0,0,0,0,0,0
2165,129,-462,16587,-2,0,0,0,0,0,0,0,0,0,0,0
2166,129,-361,16736,-67,0,0,0,0,0,0,0,0,0,0,0
2167,129,-265,16797,-167,0,0,0,0,0,0,0,0,0,0,0
2168,129,-287,16695,-194,0,0,0,0,0,0,0,0,0,0,0
2169,129,-338,16729,-45,0,0,0,0,0,0,0,0,0,0,0
2170,129,-250,16781,-33,0,0,0,0,0,0,0,0,0,0,0
2171,129,-290,16638,-53,0,0,0,0,0,0,0,0,0,0,0
2172,129,-330,16733,-44,0,0,0,0,0,0,0,0,0,0,0
2173,129,-340,16698,-159,0,0,0,0,0,0,0,0,0,0,0
2174,129,-316,16696,90,0,0,0,0,0,0,0,0,0,0,0
2175,129,-299,16688,-27,0,0,0,0,0,0,0,0,0,0,0
2176,129,-245,16541,38,0,0,0,0,0,0,0,0,0,0,0
2177,129,-160,16737,-102,0,0,0,0,0,0,0,0,0,0,0
2178,129,-277,16806,-135,0,0,0,0,0,0,0,0,0,0,0
2179,129,-368,16702,-117,0,0,0,0,0,0,0,0,0,0,0
2180,129,-319,16820,-49,0,0,0,0,0,0,0,0,0,0,0
2181,129,-313,16739,-120,0,0,0,0,0,0,0,0,0,0,0
2182,129,-325,16809,-60,0,0,0,0,0,0,0,0,0,0,0
2183,129,-316,16633,-25,0,0,0,0,0,0,0,0,0,0,0
2184,129,-294,16671,-151,0,0,0,0,0,0,0,0,0,0,0
2185,129,-292,16609,-103,0,0,0,0,0,0,0,0,0,0,0
2186,129,-253,16697,-16,0,0,0,0,0,0,0,0,0,0,0
2187,129,-286,16702,-124,0,0,0,0,0,0,0,0,0,0,0
2188,129,-275,16682,-40,0,0,0,0,0,0,0,0,0,0,0
2189,129,-220,16748,-127,0,0,0,0,0,0,0,0,0,0,0
2190,129,-265,16682,-70,0,0,0,0,0,0,0,0,0,0,0
2191,129,-271,16720,-82,0,0,0,0,0,0,0,0,0,0,0
2192,129,-248,16755,-77,0,0,0,0,0,0,0,0,0,0,0
2193,129,-288,16686,-160,0,0,0,0,0,0,0,0,0,0,0
2194,129,-319,16749,-50,0,0,0,0,0,0,0,0,0,0,0
2195,129,-315,16685,-243,0,0,0,0,0,0,0,0,0,0,0
2196,129,-243,17115,-43,0,0,0,0,0,0,0,0,0,0,0
2197,129,-273,16642,-169,0,0,0,0,0,0,0,0,0,0,0
2198,129,-281,16393,-35,0,0,0,0,0,0,0,0,0,0,0
2199,129,-187,16758,-186,0,0,0,0,0,0,0,0,0,0,0
2200,129,-261,16656,-104,0,0,0,0,0,0,0,0,0,0,0
2201,129,-297,16718,-100,0,0,0,0,0,0,0,0,0,0,0
2202,129,-323,16817,-97,0,0,0,0,0,0,0,0,0,0,0
2203,129,-312,16769,-292,0,0,0,0,0,0,0,0,0,0,0
2204,129,-255,16807,-123,0,0,0,0,0,0,0,0,0,0,0
2205,129,-225,16794,-92,0,0,0,0,0,0,0,0,0,0,0
2206,129,-216,16750,-175,0,0,0,0,0,0,0,0,0,0,0
2207,129,-185,16785,-160,0,0,0,0,0,0,0,0,0,0,0
2208,129,-270,16638,-21,0,0,0,0,0,0,0,0,0,0,0
2209,129,-246,16699,-94,0,0,0,0,0,0,0,0,0,0,0
