ProgrNum,PacketType,AccX,AccY,AccZ,GyrX,GyrY,GyrZ,MagX,MagY,MagZ,Q0,Q1,Q2,Q3,Vbat
0,129,4253,15799,3078,0,0,0,0,0,0,0,0,0,0,0
1,129,3957,15821,3038,0,0,0,0,0,0,0,0,0,0,0
2,129,4420,15740,2802,0,0,0,0,0,0,0,0,0,0,0
3,129,3903,15579,3057,0,0,0,0,0,0,0,0,0,0,0
4,129,3930,15689,2877,0,0,0,0,0,0,0,0,0,0,0
5,129,3622,15343,3277,0,0,0,0,0,0,0,0,0,0,0
6,129,3809,15477,2765,0,0,0,0,0,0,0,0,0,0,0
7,129,3746,15479,2804,0,0,0,0,0,0,0,0,0,0,0
8,129,3906,15391,2859,0,0,0,0,0,0,0,0,0,0,0
9,129,3478,15414,2696,0,0,0,0,0,0,0,0,0,0,0
10,129,3868,15729,2799,0,0,0,0,0,0,0,0,0,0,0
11,129,4089,15797,2744,0,0,0,0,0,0,0,0,0,0,0
12,129,3891,15915,2839,0,0,0,0,0,0,0,0,0,0,0
13,129,3981,15682,2800,0,0,0,0,0,0,0,0,0,0,0
14,129,4096,15856,2811,0,0,0,0,0,0,0,0,0,0,0
15,129,4151,15787,2693,0,0,0,0,0,0,0,0,0,0,0
16,129,4441,15840,2697,0,0,0,0,0,0,0,0,0,0,0
17,129,4196,15608,2913,0,0,0,0,0,0,0,0,0,0,0
18,129,4114,15614,2403,0,0,0,0,0,0,0,0,0,0,0
19,129,4160,15535,2441,0,0,0,0,0,0,0,0,0,0,0
20,129,4494,15458,2612,0,0,0,0,0,0,0,0,0,0,0
21,129,4083,15662,2717,0,0,0,0,0,0,0,0,0,0,0
22,129,3299,15446,2870,0,0,0,0,0,0,0,0,0,0,0
23,129,3887,15837,2492,0,0,0,0,0,0,0,0,0,0,0
24,129,4166,15502,2600,0,0,0,0,0,0,0,0,0,0,0
25,129,4317,15769,2661,0,0,0,0,0,0,0,0,0,0,0
26,129,4369,15839,2742,0,0,0,0,0,0,0,0,0,0,0
27,129,4109,15737,2694,0,0,0,0,0,0,0,0,0,0,0
28,129,3992,15652,2725,0,0,0,0,0,0,0,0,0,0,0
29,129,4118,15663,2657,0,0,0,0,0,0,0,0,0,0,0
30,129,4420,15996,2637,0,0,0,0,0,0,0,0,0,0,0
31,129,3951,15735,2714,0,0,0,0,0,0,0,0,0,0,0
32,129,3897,15653,2584,0,0,0,0,0,0,0,0,0,0,0
33,129,3876,15745,2601,0,0,0,0,0,0,0,0,0,0,0
34,129,3928,15719,2685,0,0,0,0,0,0,0,0,0,0,0
35,129,3986,15796,2573,0,0,0,0,0,0,0,0,0,0,0
36,129,3959,15715,2610,0,0,0,0,0,0,0,0,0,0,0
37,129,3894,15705,2639,0,0,0,0,0,0,0,0,0,0,0
38,129,3839,15760,2701,0,0,0,0,0,0,0,0,0,0,0
39,129,3692,15744,2501,0,0,0,0,0,0,0,0,0,0,0
40,129,3760,15736,2689,0,0,0,0,0,0,0,0,0,0,0
41,129,3877,15824,2684,0,0,0,0,0,0,0,0,0,0,0
42,129,3877,15810,2700,0,0,0,0,0,0,0,0,0,0,0
43,129,3764,15815,2740,0,0,0,0,0,0,0,0,0,0,0
44,129,3859,15712,2543,0,0,0,0,0,0,0,0,0,0,0
45,129,3587,15812,2752,0,0,0,0,0,0,0,0,0,0,0
46,129,3671,15919,2734,0,0,0,0,0,0,0,0,0,0,0
47,129,3856,15988,2709,0,0,0,0,0,0,0,0,0,0,0
48,129,3911,15827,2746,0,0,0,0,0,0,0,0,0,0,0
49,129,3764,15803,2724,0,0,0,0,0,0,0,0,0,0,0
50,129,3638,15781,2646,0,0,0,0,0,0,0,0,0,0,0
51,129,3533,15626,2641,0,0,0,0,0,0,0,0,0,0,0
52,129,3733,15647,2762,0,0,0,0,0,0,0,0,0,0,0
53,129,3814,15411,2908,0,0,0,0,0,0,0,0,0,0,0
54,129,3676,15794,2647,0,0,0,0,0,0,0,0,0,0,0
55,129,3870,15804,2775,0,0,0,0,0,0,0,0,0,0,0
56,129,4053,15752,2817,0,0,0,0,0,0,0,0,0,0,0
57,129,4152,15856,2847,0,0,0,0,0,0,0,0,0,0,0
58,129,4055,15738,2755,0,0,0,0,0,0,0,0,0,0,0
59,129,4021,15723,2719,0,0,0,0,0,0,0,0,0,0,0
60,129,3892,15639,2710,0,0,0,0,0,0,0,0,0,0,0
61,129,3837,15694,2750,0,0,0,0,0,0,0,0,0,0,0
62,129,3895,15704,2757,0,0,0,0,0,0,0,0,0,0,0
63,129,3915,15705,2787,0,0,0,0,0,0,0,0,0,0,0
64,129,4005,15631,2865,0,0,0,0,0,0,0,0,0,0,0
65,129,3841,15626,2785,0,0,0,0,0,0,0,0,0,0,0
66,129,3864,15618,2664,0,0,0,0,0,0,0,0,0,0,0
67,129,3787,15498,2769,0,0,0,0,0,0,0,0,0,0,0
68,129,3627,15622,2698,0,0,0,0,0,0,0,0,0,0,0
69,129,3325,15542,2750,0,0,0,0,0,0,0,0,0,0,0
70,129,3176,15395,2618,0,0,0,0,0,0,0,0,0,0,0
71,129,3314,15454,2293,0,0,0,0,0,0,0,0,0,0,0
72,129,3159,15540,2692,0,0,0,0,0,0,0,0,0,0,0
73,129,3373,15456,2436,0,0,0,0,0,0,0,0,0,0,0
74,129,2773,15449,2462,0,0,0,0,0,0,0,0,0,0,0
75,129,3284,15528,1824,0,0,0,0,0,0,0,0,0,0,0
76,129,3207,15804,2168,0,0,0,0,0,0,0,0,0,0,0
77,129,3233,15864,2394,0,0,0,0,0,0,0,0,0,0,0
78,129,3366,15831,2422,0,0,0,0,0,0,0,0,0,0,0
79,129,3004,16123,2840,0,0,0,0,0,0,0,0,0,0,0
80,129,3706,16212,3079,0,0,0,0,0,0,0,0,0,0,0
81,129,3321,16467,3015,0,0,0,0,0,0,0,0,0,0,0
82,129,3163,16083,2380,0,0,0,0,0,0,0,0,0,0,0
83,129,3172,15847,2140,0,0,0,0,0,0,0,0,0,0,0
84,129,3160,15859,1486,0,0,0,0,0,0,0,0,0,0,0
85,129,2848,16074,1610,0,0,0,0,0,0,0,0,0,0,0
86,129,2855,16533,1557,0,0,0,0,0,0,0,0,0,0,0
87,129,2656,16361,2018,0,0,0,0,0,0,0,0,0,0,0
88,129,4429,17755,1490,0,0,0,0,0,0,0,0,0,0,0
89,129,2374,15200,1559,0,0,0,0,0,0,0,0,0,0,0
90,129,2327,16427,1508,0,0,0,0,0,0,0,0,0,0,0
91,129,1883,17251,987,0,0,0,0,0,0,0,0,0,0,0
92,129,3149,16557,568,0,0,0,0,0,0,0,0,0,0,0
93,129,2266,17525,937,0,0,0,0,0,0,0,0,0,0,0
94,129,3038,16969,827,0,0,0,0,0,0,0,0,0,0,0
95,129,2570,16690,351,0,0,0,0,0,0,0,0,0,0,0
96,129,2701,16340,780,0,0,0,0,0,0,0,0,0,0,0
97,129,2890,16264,1253,0,0,0,0,0,0,0,0,0,0,0
98,129,2231,17615,1041,0,0,0,0,0,0,0,0,0,0,0
99,129,2717,16574,961,0,0,0,0,0,0,0,0,0,0,0
100,129,2992,16181,978,0,0,0,0,0,0,0,0,0,0,0
101,129,3394,15915,1424,0,0,0,0,0,0,0,0,0,0,0
102,129,3468,16342,2446,0,0,0,0,0,0,0,0,0,0,0
103,129,4465,15126,-4367,0,0,0,0,0,0,0,0,0,0,0
104,129,3147,17005,1110,0,0,0,0,0,0,0,0,0,0,0
105,129,4971,14673,1349,0,0,0,0,0,0,0,0,0,0,0
106,129,3794,14544,2390,0,0,0,0,0,0,0,0,0,0,0
107,129,-533,14682,2080,0,0,0,0,0,0,0,0,0,0,0
108,129,367,16746,1819,0,0,0,0,0,0,0,0,0,0,0
109,129,650,15942,1735,0,0,0,0,0,0,0,0,0,0,0
110,129,303,16012,2470,0,0,0,0,0,0,0,0,0,0,0
111,129,-6,15461,1140,0,0,0,0,0,0,0,0,0,0,0
112,129,177,16671,3472,0,0,0,0,0,0,0,0,0,0,0
113,129,-20,16510,2084,0,0,0,0,0,0,0,0,0,0,0
114,129,-227,16562,1281,0,0,0,0,0,0,0,0,0,0,0
115,129,-1775,15611,-4276,0,0,0,0,0,0,0,0,0,0,0
116,129,602,17252,3264,0,0,0,0,0,0,0,0,0,0,0
117,129,-1947,17906,-1355,0,0,0,0,0,0,0,0,0,0,0
118,129,698,16446,-885,0,0,0,0,0,0,0,0,0,0,0
119,129,417,16853,968,0,0,0,0,0,0,0,0,0,0,0
120,129,564,17343,643,0,0,0,0,0,0,0,0,0,0,0
121,129,1504,17266,-271,0,0,0,0,0,0,0,0,0,0,0
122,129,1380,16928,-49,0,0,0,0,0,0,0,0,0,0,0
123,129,1316,16771,184,0,0,0,0,0,0,0,0,0,0,0
124,129,821,17115,73,0,0,0,0,0,0,0,0,0,0,0
125,129,670,16609,-594,0,0,0,0,0,0,0,0,0,0,0
126,129,787,16794,-559,0,0,0,0,0,0,0,0,0,0,0
127,129,1014,16537,-768,0,0,0,0,0,0,0,0,0,0,0
128,129,1106,16767,-451,0,0,0,0,0,0,0,0,0,0,0
129,129,1132,16556,383,0,0,0,0,0,0,0,0,0,0,0
130,129,505,16707,980,0,0,0,0,0,0,0,0,0,0,0
131,129,-148,16779,1168,0,0,0,0,0,0,0,0,0,0,0
132,129,2,16588,201,0,0,0,0,0,0,0,0,0,0,0
133,129,-1057,16805,136,0,0,0,0,0,0,0,0,0,0,0
134,129,-1369,16605,314,0,0,0,0,0,0,0,0,0,0,0
135,129,-1017,16178,661,0,0,0,0,0,0,0,0,0,0,0
136,129,-587,16336,862,0,0,0,0,0,0,0,0,0,0,0
137,129,-1428,16618,1420,0,0,0,0,0,0,0,0,0,0,0
138,129,-658,17340,798,0,0,0,0,0,0,0,0,0,0,0
139,129,-493,16504,72,0,0,0,0,0,0,0,0,0,0,0
140,129,-486,16748,310,0,0,0,0,0,0,0,0,0,0,0
141,129,-242,16704,742,0,0,0,0,0,0,0,0,0,0,0
142,129,397,16166,619,0,0,0,0,0,0,0,0,0,0,0
143,129,1320,16829,1159,0,0,0,0,0,0,0,0,0,0,0
144,129,-365,15859,1020,0,0,0,0,0,0,0,0,0,0,0
145,129,841,16423,598,0,0,0,0,0,0,0,0,0,0,0
146,129,1131,16436,496,0,0,0,0,0,0,0,0,0,0,0
147,129,624,16534,1259,0,0,0,0,0,0,0,0,0,0,0
148,129,92,16680,-136,0,0,0,0,0,0,0,0,0,0,0
149,129,181,16503,1361,0,0,0,0,0,0,0,0,0,0,0
150,129,430,16582,1413,0,0,0,0,0,0,0,0,0,0,0
151,129,-1291,16498,2401,0,0,0,0,0,0,0,0,0,0,0
152,129,-479,16981,1376,0,0,0,0,0,0,0,0,0,0,0
153,129,-273,16469,732,0,0,0,0,0,0,0,0,0,0,0
154,129,-321,16426,1020,0,0,0,0,0,0,0,0,0,0,0
155,129,-487,16935,1281,0,0,0,0,0,0,0,0,0,0,0
156,129,-528,17231,894,0,0,0,0,0,0,0,0,0,0,0
157,129,-383,16772,997,0,0,0,0,0,0,0,0,0,0,0
158,129,-393,16549,1202,0,0,0,0,0,0,0,0,0,0,0
159,129,334,17714,519,0,0,0,0,0,0,0,0,0,0,0
160,129,-571,16938,1252,0,0,0,0,0,0,0,0,0,0,0
161,129,141,17029,1188,0,0,0,0,0,0,0,0,0,0,0
162,129,324,17082,118,0,0,0,0,0,0,0,0,0,0,0
163,129,412,16231,-34,0,0,0,0,0,0,0,0,0,0,0
164,129,-1117,15194,922,0,0,0,0,0,0,0,0,0,0,0
165,129,605,16610,1216,0,0,0,0,0,0,0,0,0,0,0
166,129,501,16578,1494,0,0,0,0,0,0,0,0,0,0,0
167,129,205,16613,1023,0,0,0,0,0,0,0,0,0,0,0
168,129,228,16728,527,0,0,0,0,0,0,0,0,0,0,0
169,129,274,16504,517,0,0,0,0,0,0,0,0,0,0,0
170,129,1717,17636,10,0,0,0,0,0,0,0,0,0,0,0
171,129,240,15816,1437,0,0,0,0,0,0,0,0,0,0,0
172,129,838,15513,580,0,0,0,0,0,0,0,0,0,0,0
173,129,915,16628,824,0,0,0,0,0,0,0,0,0,0,0
174,129,678,16789,973,0,0,0,0,0,0,0,0,0,0,0
175,129,879,16574,927,0,0,0,0,0,0,0,0,0,0,0
176,129,942,16615,1218,0,0,0,0,0,0,0,0,0,0,0
177,129,860,16500,1278,0,0,0,0,0,0,0,0,0,0,0
178,129,853,16624,1071,0,0,0,0,0,0,0,0,0,0,0
179,129,759,16625,1050,0,0,0,0,0,0,0,0,0,0,0
180,129,1215,16534,899,0,0,0,0,0,0,0,0,0,0,0
181,129,1382,16217,1222,0,0,0,0,0,0,0,0,0,0,0
182,129,1445,16270,1089,0,0,0,0,0,0,0,0,0,0,0
183,129,1457,16455,987,0,0,0,0,0,0,0,0,0,0,0
184,129,1423,16367,942,0,0,0,0,0,0,0,0,0,0,0
185,129,1279,16442,1119,0,0,0,0,0,0,0,0,0,0,0
186,129,1231,16506,867,0,0,0,0,0,0,0,0,0,0,0
187,129,1108,16366,1132,0,0,0,0,0,0,0,0,0,0,0
188,129,1069,16473,1128,0,0,0,0,0,0,0,0,0,0,0
189,129,1007,16496,1176,0,0,0,0,0,0,0,0,0,0,0
190,129,1097,16280,1430,0,0,0,0,0,0,0,0,0,0,0
191,129,1165,16251,1179,0,0,0,0,0,0,0,0,0,0,0
192,129,1136,16335,1300,0,0,0,0,0,0,0,0,0,0,0
193,129,1037,16147,1031,0,0,0,0,0,0,0,0,0,0,0
194,129,1039,16272,1362,0,0,0,0,0,0,0,0,0,0,0
195,129,1263,16621,1696,0,0,0,0,0,0,0,0,0,0,0
196,129,1265,16752,1953,0,0,0,0,0,0,0,0,0,0,0
197,129,1941,16572,1580,0,0,0,0,0,0,0,0,0,0,0
198,129,1395,16801,1699,0,0,0,0,0,0,0,0,0,0,0
199,129,1427,16633,1548,0,0,0,0,0,0,0,0,0,0,0
200,129,1384,16321,1343,0,0,0,0,0,0,0,0,0,0,0
201,129,160,16465,2074,0,0,0,0,0,0,0,0,0,0,0
202,129,1260,16642,1624,0,0,0,0,0,0,0,0,0,0,0
203,129,1064,16514,1390,0,0,0,0,0,0,0,0,0,0,0
204,129,756,16648,1779,0,0,0,0,0,0,0,0,0,0,0
205,129,1564,16440,1608,0,0,0,0,0,0,0,0,0,0,0
206,129,1387,15813,2684,0,0,0,0,0,0,0,0,0,0,0
207,129,769,16888,2931,0,0,0,0,0,0,0,0,0,0,0
208,129,824,16445,3304,0,0,0,0,0,0,0,0,0,0,0
209,129,2788,15688,976,0,0,0,0,0,0,0,0,0,0,0
210,129,2223,16624,2803,0,0,0,0,0,0,0,0,0,0,0
211,129,2159,15985,2594,0,0,0,0,0,0,0,0,0,0,0
212,129,1959,16122,2443,0,0,0,0,0,0,0,0,0,0,0
213,129,2305,15849,2686,0,0,0,0,0,0,0,0,0,0,0
214,129,2707,15911,2570,0,0,0,0,0,0,0,0,0,0,0
215,129,2177,16005,2390,0,0,0,0,0,0,0,0,0,0,0
216,129,1777,15974,3346,0,0,0,0,0,0,0,0,0,0,0
217,129,1651,15946,3306,0,0,0,0,0,0,0,0,0,0,0
218,129,2277,16419,3349,0,0,0,0,0,0,0,0,0,0,0
219,129,2408,16312,2954,0,0,0,0,0,0,0,0,0,0,0
220,129,2201,15774,3169,0,0,0,0,0,0,0,0,0,0,0
221,129,1283,16013,2323,0,0,0,0,0,0,0,0,0,0,0
222,129,1141,16212,2717,0,0,0,0,0,0,0,0,0,0,0
223,129,1755,15814,3633,0,0,0,0,0,0,0,0,0,0,0
224,129,1734,16260,3478,0,0,0,0,0,0,0,0,0,0,0
225,129,865,15387,1532,0,0,0,0,0,0,0,0,0,0,0
226,129,2089,16055,3037,0,0,0,0,0,0,0,0,0,0,0
227,129,1674,15756,2277,0,0,0,0,0,0,0,0,0,0,0
228,129,2007,15499,3552,0,0,0,0,0,0,0,0,0,0,0
229,129,1796,15641,3331,0,0,0,0,0,0,0,0,0,0,0
230,129,1603,16117,3757,0,0,0,0,0,0,0,0,0,0,0
231,129,1854,16210,3637,0,0,0,0,0,0,0,0,0,0,0
232,129,1922,16609,4051,0,0,0,0,0,0,0,0,0,0,0
233,129,-1005,16896,2591,0,0,0,0,0,0,0,0,0,0,0
234,129,2847,16114,4276,0,0,0,0,0,0,0,0,0,0,0
235,129,1747,16516,4000,0,0,0,0,0,0,0,0,0,0,0
236,129,1491,15995,2859,0,0,0,0,0,0,0,0,0,0,0
237,129,1871,16418,3935,0,0,0,0,0,0,0,0,0,0,0
238,129,1201,16436,3753,0,0,0,0,0,0,0,0,0,0,0
239,129,1113,15857,3434,0,0,0,0,0,0,0,0,0,0,0
240,129,905,15943,2701,0,0,0,0,0,0,0,0,0,0,0
241,129,1160,15834,3067,0,0,0,0,0,0,0,0,0,0,0
242,129,1364,15704,3378,0,0,0,0,0,0,0,0,0,0,0
243,129,1714,15786,3577,0,0,0,0,0,0,0,0,0,0,0
244,129,2317,15769,3386,0,0,0,0,0,0,0,0,0,0,0
245,129,1195,15439,644,0,0,0,0,0,0,0,0,0,0,0
246,129,1423,15657,3162,0,0,0,0,0,0,0,0,0,0,0
247,129,1929,16553,5176,0,0,0,0,0,0,0,0,0,0,0
248,129,1636,16694,3499,0,0,0,0,0,0,0,0,0,0,0
249,129,1638,16264,2935,0,0,0,0,0,0,0,0,0,0,0
250,129,1482,16255,2616,0,0,0,0,0,0,0,0,0,0,0
251,129,1593,16741,3527,0,0,0,0,0,0,0,0,0,0,0
252,129,2235,16096,4206,0,0,0,0,0,0,0,0,0,0,0
253,129,1447,16482,3091,0,0,0,0,0,0,0,0,0,0,0
254,129,1056,16267,2459,0,0,0,0,0,0,0,0,0,0,0
255,129,1026,16063,2346,0,0,0,0,0,0,0,0,0,0,0
256,129,768,16047,2682,0,0,0,0,0,0,0,0,0,0,0
257,129,1492,16208,2499,0,0,0,0,0,0,0,0,0,0,0
258,129,980,15586,2379,0,0,0,0,0,0,0,0,0,0,0
259,129,818,16286,2733,0,0,0,0,0,0,0,0,0,0,0
260,129,1779,16344,2936,0,0,0,0,0,0,0,0,0,0,0
261,129,762,16258,2575,0,0,0,0,0,0,0,0,0,0,0
262,129,892,16433,2520,0,0,0,0,0,0,0,0,0,0,0
263,129,-732,16515,2356,0,0,0,0,0,0,0,0,0,0,0
264,129,460,16334,1982,0,0,0,0,0,0,0,0,0,0,0
265,129,729,16891,2435,0,0,0,0,0,0,0,0,0,0,0
266,129,-119,16497,2380,0,0,0,0,0,0,0,0,0,0,0
267,129,274,16135,2293,0,0,0,0,0,0,0,0,0,0,0
268,129,587,15848,2035,0,0,0,0,0,0,0,0,0,0,0
269,129,-379,16185,1982,0,0,0,0,0,0,0,0,0,0,0
270,129,-331,16411,1727,0,0,0,0,0,0,0,0,0,0,0
271,129,-355,16688,1973,0,0,0,0,0,0,0,0,0,0,0
272,129,-475,16297,1806,0,0,0,0,0,0,0,0,0,0,0
273,129,-197,16339,1594,0,0,0,0,0,0,0,0,0,0,0
274,129,-13,16478,1540,0,0,0,0,0,0,0,0,0,0,0
275,129,-15,16575,2142,0,0,0,0,0,0,0,0,0,0,0
276,129,-62,16465,2169,0,0,0,0,0,0,0,0,0,0,0
277,129,15,16296,2050,0,0,0,0,0,0,0,0,0,0,0
278,129,90,16355,2146,0,0,0,0,0,0,0,0,0,0,0
279,129,124,16317,2635,0,0,0,0,0,0,0,0,0,0,0
280,129,496,15962,2033,0,0,0,0,0,0,0,0,0,0,0
281,129,426,16317,1990,0,0,0,0,0,0,0,0,0,0,0
282,129,-6326,16527,651,0,0,0,0,0,0,0,0,0,0,0
283,129,1794,16401,3706,0,0,0,0,0,0,0,0,0,0,0
284,129,949,16286,2873,0,0,0,0,0,0,0,0,0,0,0
285,129,754,16336,2659,0,0,0,0,0,0,0,0,0,0,0
286,129,581,16284,2964,0,0,0,0,0,0,0,0,0,0,0
287,129,425,16259,3058,0,0,0,0,0,0,0,0,0,0,0
288,129,-82,16270,2700,0,0,0,0,0,0,0,0,0,0,0
289,129,-68,16339,2679,0,0,0,0,0,0,0,0,0,0,0
290,129,544,16190,2743,0,0,0,0,0,0,0,0,0,0,0
291,129,516,16269,3013,0,0,0,0,0,0,0,0,0,0,0
292,129,300,15986,2927,0,0,0,0,0,0,0,0,0,0,0
293,129,657,16039,2883,0,0,0,0,0,0,0,0,0,0,0
294,129,290,15945,2847,0,0,0,0,0,0,0,0,0,0,0
295,129,125,15984,3001,0,0,0,0,0,0,0,0,0,0,0
296,129,209,16146,2908,0,0,0,0,0,0,0,0,0,0,0
297,129,-3,16324,2572,0,0,0,0,0,0,0,0,0,0,0
298,129,-5,16238,2746,0,0,0,0,0,0,0,0,0,0,0
299,129,82,16450,2810,0,0,0,0,0,0,0,0,0,0,0
300,129,582,16280,2836,0,0,0,0,0,0,0,0,0,0,0
301,129,320,16360,2312,0,0,0,0,0,0,0,0,0,0,0
302,129,179,16532,2696,0,0,0,0,0,0,0,0,0,0,0
303,129,266,16416,2682,0,0,0,0,0,0,0,0,0,0,0
304,129,327,16278,2352,0,0,0,0,0,0,0,0,0,0,0
305,129,140,16434,2475,0,0,0,0,0,0,0,0,0,0,0
306,129,36,16191,2313,0,0,0,0,0,0,0,0,0,0,0
307,129,239,16213,2406,0,0,0,0,0,0,0,0,0,0,0
308,129,306,16351,2296,0,0,0,0,0,0,0,0,0,0,0
309,129,33,16280,2318,0,0,0,0,0,0,0,0,0,0,0
310,129,-157,16167,2007,0,0,0,0,0,0,0,0,0,0,0
311,129,315,16392,2023,0,0,0,0,0,0,0,0,0,0,0
312,129,89,16465,2005,0,0,0,0,0,0,0,0,0,0,0
313,129,-50,16674,2141,0,0,0,0,0,0,0,0,0,0,0
314,129,-489,16229,1516,0,0,0,0,0,0,0,0,0,0,0
315,129,150,16253,1428,0,0,0,0,0,0,0,0,0,0,0
316,129,321,16612,1608,0,0,0,0,0,0,0,0,0,0,0
317,129,155,16484,1756,0,0,0,0,0,0,0,0,0,0,0
318,129,66,16397,1137,0,0,0,0,0,0,0,0,0,0,0
319,129,92,16481,1386,0,0,0,0,0,0,0,0,0,0,0
320,129,5,16744,1108,0,0,0,0,0,0,0,0,0,0,0
321,129,224,16253,710,0,0,0,0,0,0,0,0,0,0,0
322,129,1443,17156,1925,0,0,0,0,0,0,0,0,0,0,0
323,129,203,16530,942,0,0,0,0,0,0,0,0,0,0,0
324,129,276,16743,1119,0,0,0,0,0,0,0,0,0,0,0
325,129,653,16657,1085,0,0,0,0,0,0,0,0,0,0,0
326,129,132,16546,845,0,0,0,0,0,0,0,0,0,0,0
327,129,-482,15800,-60,0,0,0,0,0,0,0,0,0,0,0
328,129,536,16700,1054,0,0,0,0,0,0,0,0,0,0,0
329,129,354,16433,847,0,0,0,0,0,0,0,0,0,0,0
330,129,262,16626,1036,0,0,0,0,0,0,0,0,0,0,0
331,129,131,16939,1197,0,0,0,0,0,0,0,0,0,0,0
332,129,315,16646,1155,0,0,0,0,0,0,0,0,0,0,0
333,129,381,16505,1188,0,0,0,0,0,0,0,0,0,0,0
334,129,426,16417,1275,0,0,0,0,0,0,0,0,0,0,0
335,129,496,16457,1516,0,0,0,0,0,0,0,0,0,0,0
336,129,471,16444,1328,0,0,0,0,0,0,0,0,0,0,0
337,129,631,16402,1256,0,0,0,0,0,0,0,0,0,0,0
338,129,652,16433,1430,0,0,0,0,0,0,0,0,0,0,0
339,129,409,16529,1372,0,0,0,0,0,0,0,0,0,0,0
340,129,253,16370,1259,0,0,0,0,0,0,0,0,0,0,0
341,129,307,16386,1481,0,0,0,0,0,0,0,0,0,0,0
342,129,137,16490,1518,0,0,0,0,0,0,0,0,0,0,0
343,129,147,16589,1479,0,0,0,0,0,0,0,0,0,0,0
344,129,316,16499,1499,0,0,0,0,0,0,0,0,0,0,0
345,129,396,16563,1554,0,0,0,0,0,0,0,0,0,0,0
346,129,314,16561,1511,0,0,0,0,0,0,0,0,0,0,0
347,129,262,16534,1628,0,0,0,0,0,0,0,0,0,0,0
348,129,202,16669,1593,0,0,0,0,0,0,0,0,0,0,0
349,129,385,16700,1691,0,0,0,0,0,0,0,0,0,0,0
350,129,300,16624,1783,0,0,0,0,0,0,0,0,0,0,0
351,129,286,16567,1565,0,0,0,0,0,0,0,0,0,0,0
352,129,377,16502,1440,0,0,0,0,0,0,0,0,0,0,0
353,129,304,16710,1744,0,0,0,0,0,0,0,0,0,0,0
354,129,151,16567,1597,0,0,0,0,0,0,0,0,0,0,0
355,129,15,16332,1503,0,0,0,0,0,0,0,0,0,0,0
356,129,-81,16411,1319,0,0,0,0,0,0,0,0,0,0,0
357,129,34,16515,1307,0,0,0,0,0,0,0,0,0,0,0
358,129,191,16594,1442,0,0,0,0,0,0,0,0,0,0,0
359,129,399,16835,1631,0,0,0,0,0,0,0,0,0,0,0
360,129,453,16961,1639,0,0,0,0,0,0,0,0,0,0,0
361,129,237,17102,1702,0,0,0,0,0,0,0,0,0,0,0
362,129,229,17127,1564,0,0,0,0,0,0,0,0,0,0,0
363,129,381,16933,1716,0,0,0,0,0,0,0,0,0,0,0
364,129,236,16767,1942,0,0,0,0,0,0,0,0,0,0,0
365,129,177,16677,1792,0,0,0,0,0,0,0,0,0,0,0
366,129,448,16739,1968,0,0,0,0,0,0,0,0,0,0,0
367,129,915,16714,2208,0,0,0,0,0,0,0,0,0,0,0
368,129,698,16788,1982,0,0,0,0,0,0,0,0,0,0,0
369,129,608,16812,2021,0,0,0,0,0,0,0,0,0,0,0
370,129,908,16683,1976,0,0,0,0,0,0,0,0,0,0,0
371,129,968,16766,2209,0,0,0,0,0,0,0,0,0,0,0
372,129,949,16858,2409,0,0,0,0,0,0,0,0,0,0,0
373,129,901,16907,2283,0,0,0,0,0,0,0,0,0,0,0
374,129,1220,16708,2319,0,0,0,0,0,0,0,0,0,0,0
375,129,1051,16188,2408,0,0,0,0,0,0,0,0,0,0,0
376,129,1091,16120,2599,0,0,0,0,0,0,0,0,0,0,0
377,129,779,15911,2547,0,0,0,0,0,0,0,0,0,0,0
378,129,1024,15800,2324,0,0,0,0,0,0,0,0,0,0,0
379,129,1187,15838,2885,0,0,0,0,0,0,0,0,0,0,0
380,129,1532,15769,2775,0,0,0,0,0,0,0,0,0,0,0
381,129,1680,15355,2889,0,0,0,0,0,0,0,0,0,0,0
382,129,1436,15244,2852,0,0,0,0,0,0,0,0,0,0,0
383,129,1705,15416,2938,0,0,0,0,0,0,0,0,0,0,0
384,129,2122,15486,3167,0,0,0,0,0,0,0,0,0,0,0
385,129,2251,15598,3242,0,0,0,0,0,0,0,0,0,0,0
386,129,2326,15673,3198,0,0,0,0,0,0,0,0,0,0,0
387,129,2255,15720,3445,0,0,0,0,0,0,0,0,0,0,0
388,129,2209,15977,3339,0,0,0,0,0,0,0,0,0,0,0
389,129,2263,15916,3329,0,0,0,0,0,0,0,0,0,0,0
390,129,2003,15648,3307,0,0,0,0,0,0,0,0,0,0,0
391,129,1954,15702,3421,0,0,0,0,0,0,0,0,0,0,0
392,129,1970,15931,3454,0,0,0,0,0,0,0,0,0,0,0
393,129,2114,16205,3209,0,0,0,0,0,0,0,0,0,0,0
394,129,2037,16127,3229,0,0,0,0,0,0,0,0,0,0,0
395,129,2264,15895,3631,0,0,0,0,0,0,0,0,0,0,0
396,129,1937,16144,3577,0,0,0,0,0,0,0,0,0,0,0
397,129,2323,16083,3544,0,0,0,0,0,0,0,0,0,0,0
398,129,2609,16282,3775,0,0,0,0,0,0,0,0,0,0,0
399,129,2510,16317,3996,0,0,0,0,0,0,0,0,0,0,0
400,129,2488,16482,3830,0,0,0,0,0,0,0,0,0,0,0
401,129,2453,16385,3834,0,0,0,0,0,0,0,0,0,0,0
402,129,2324,16330,3468,0,0,0,0,0,0,0,0,0,0,0
403,129,2399,15879,4250,0,0,0,0,0,0,0,0,0,0,0
404,129,2350,16122,3522,0,0,0,0,0,0,0,0,0,0,0
405,129,2011,16183,3976,0,0,0,0,0,0,0,0,0,0,0
406,129,2126,16007,3816,0,0,0,0,0,0,0,0,0,0,0
407,129,2472,15695,3787,0,0,0,0,0,0,0,0,0,0,0
408,129,2625,15870,3861,0,0,0,0,0,0,0,0,0,0,0
409,129,2703,15888,4004,0,0,0,0,0,0,0,0,0,0,0
410,129,3193,15436,4317,0,0,0,0,0,0,0,0,0,0,0
411,129,3808,15134,4394,0,0,0,0,0,0,0,0,0,0,0
412,129,3905,15127,4551,0,0,0,0,0,0,0,0,0,0,0
413,129,3940,14866,4497,0,0,0,0,0,0,0,0,0,0,0
414,129,4361,14655,4574,0,0,0,0,0,0,0,0,0,0,0
415,129,4800,14353,4520,0,0,0,0,0,0,0,0,0,0,0
416,129,4984,14020,4409,0,0,0,0,0,0,0,0,0,0,0
417,129,5455,14113,4590,0,0,0,0,0,0,0,0,0,0,0
418,129,6267,14050,4472,0,0,0,0,0,0,0,0,0,0,0
419,129,6077,14351,4660,0,0,0,0,0,0,0,0,0,0,0
420,129,5554,14287,5131,0,0,0,0,0,0,0,0,0,0,0
421,129,5907,14482,5355,0,0,0,0,0,0,0,0,0,0,0
422,129,6359,14660,4887,0,0,0,0,0,0,0,0,0,0,0
423,129,6373,14449,5101,0,0,0,0,0,0,0,0,0,0,0
424,129,6672,14220,5320,0,0,0,0,0,0,0,0,0,0,0
425,129,6439,14550,5043,0,0,0,0,0,0,0,0,0,0,0
426,129,6492,14278,4703,0,0,0,0,0,0,0,0,0,0,0
427,129,7043,13950,4950,0,0,0,0,0,0,0,0,0,0,0
428,129,6774,13711,4886,0,0,0,0,0,0,0,0,0,0,0
429,129,6563,13573,5368,0,0,0,0,0,0,0,0,0,0,0
430,129,6770,13499,5094,0,0,0,0,0,0,0,0,0,0,0
431,129,6480,13437,5008,0,0,0,0,0,0,0,0,0,0,0
432,129,6455,13184,5205,0,0,0,0,0,0,0,0,0,0,0
433,129,6872,13559,5370,0,0,0,0,0,0,0,0,0,0,0
434,129,7377,13035,5612,0,0,0,0,0,0,0,0,0,0,0
435,129,7366,13023,5706,0,0,0,0,0,0,0,0,0,0,0
436,129,7363,13017,5534,0,0,0,0,0,0,0,0,0,0,0
437,129,6643,13021,5731,0,0,0,0,0,0,0,0,0,0,0
438,129,7583,12646,5801,0,0,0,0,0,0,0,0,0,0,0
439,129,7073,12673,5916,0,0,0,0,0,0,0,0,0,0,0
440,129,7400,12859,6084,0,0,0,0,0,0,0,0,0,0,0
441,129,7625,12473,5951,0,0,0,0,0,0,0,0,0,0,0
442,129,8126,12603,6205,0,0,0,0,0,0,0,0,0,0,0
443,129,8186,12499,6167,0,0,0,0,0,0,0,0,0,0,0
444,129,7918,12547,5900,0,0,0,0,0,0,0,0,0,0,0
445,129,7997,12584,6213,0,0,0,0,0,0,0,0,0,0,0
446,129,8192,12364,6117,0,0,0,0,0,0,0,0,0,0,0
447,129,8184,12297,6428,0,0,0,0,0,0,0,0,0,0,0
448,129,7943,12215,6616,0,0,0,0,0,0,0,0,0,0,0
449,129,7788,12280,6906,0,0,0,0,0,0,0,0,0,0,0
450,129,7762,12332,7076,0,0,0,0,0,0,0,0,0,0,0
451,129,7899,12158,7198,0,0,0,0,0,0,0,0,0,0,0
452,129,7910,12197,6991,0,0,0,0,0,0,0,0,0,0,0
453,129,7725,11921,7313,0,0,0,0,0,0,0,0,0,0,0
454,129,8080,11883,7721,0,0,0,0,0,0,0,0,0,0,0
455,129,7476,11951,7962,0,0,0,0,0,0,0,0,0,0,0
456,129,7385,11817,7781,0,0,0,0,0,0,0,0,0,0,0
457,129,7473,11402,7864,0,0,0,0,0,0,0,0,0,0,0
458,129,7965,11556,8401,0,0,0,0,0,0,0,0,0,0,0
459,129,7494,11516,8659,0,0,0,0,0,0,0,0,0,0,0
460,129,7139,11063,8594,0,0,0,0,0,0,0,0,0,0,0
461,129,7649,11153,8623,0,0,0,0,0,0,0,0,0,0,0
462,129,7735,11284,8865,0,0,0,0,0,0,0,0,0,0,0
463,129,7684,11369,9221,0,0,0,0,0,0,0,0,0,0,0
464,129,7513,10802,9055,0,0,0,0,0,0,0,0,0,0,0
465,129,7414,10656,8883,0,0,0,0,0,0,0,0,0,0,0
466,129,7528,10642,8814,0,0,0,0,0,0,0,0,0,0,0
467,129,7603,10507,9577,0,0,0,0,0,0,0,0,0,0,0
468,129,7767,10706,9081,0,0,0,0,0,0,0,0,0,0,0
469,129,8098,10516,9193,0,0,0,0,0,0,0,0,0,0,0
470,129,9151,10011,9407,0,0,0,0,0,0,0,0,0,0,0
471,129,9902,9959,9211,0,0,0,0,0,0,0,0,0,0,0
472,129,10301,9817,9140,0,0,0,0,0,0,0,0,0,0,0
473,129,10208,9738,9202,0,0,0,0,0,0,0,0,0,0,0
474,129,10379,9373,8667,0,0,0,0,0,0,0,0,0,0,0
475,129,10670,9109,8303,0,0,0,0,0,0,0,0,0,0,0
476,129,10810,8516,8706,0,0,0,0,0,0,0,0,0,0,0
477,129,10116,8392,8972,0,0,0,0,0,0,0,0,0,0,0
478,129,9884,8240,8643,0,0,0,0,0,0,0,0,0,0,0
479,129,10302,7674,8871,0,0,0,0,0,0,0,0,0,0,0
480,129,10046,7465,9053,0,0,0,0,0,0,0,0,0,0,0
481,129,10163,7571,9321,0,0,0,0,0,0,0,0,0,0,0
482,129,10350,7511,9477,0,0,0,0,0,0,0,0,0,0,0
483,129,10419,7009,9167,0,0,0,0,0,0,0,0,0,0,0
484,129,10707,6526,9403,0,0,0,0,0,0,0,0,0,0,0
485,129,10695,6726,9809,0,0,0,0,0,0,0,0,0,0,0
486,129,10790,6459,9775,0,0,0,0,0,0,0,0,0,0,0
487,129,10794,6032,9801,0,0,0,0,0,0,0,0,0,0,0
488,129,11032,5702,10006,0,0,0,0,0,0,0,0,0,0,0
489,129,10709,5833,9940,0,0,0,0,0,0,0,0,0,0,0
490,129,11145,4741,10022,0,0,0,0,0,0,0,0,0,0,0
491,129,10822,5363,9974,0,0,0,0,0,0,0,0,0,0,0
492,129,10981,4547,10321,0,0,0,0,0,0,0,0,0,0,0
493,129,11202,3869,9912,0,0,0,0,0,0,0,0,0,0,0
494,129,10963,3395,9996,0,0,0,0,0,0,0,0,0,0,0
495,129,11087,3109,10050,0,0,0,0,0,0,0,0,0,0,0
496,129,11371,3618,9953,0,0,0,0,0,0,0,0,0,0,0
497,129,11021,2673,10255,0,0,0,0,0,0,0,0,0,0,0
498,129,11072,2033,9933,0,0,0,0,0,0,0,0,0,0,0
499,129,11202,1672,10181,0,0,0,0,0,0,0,0,0,0,0
500,129,11289,1361,9855,0,0,0,0,0,0,0,0,0,0,0
501,129,11475,1324,9741,0,0,0,0,0,0,0,0,0,0,0
502,129,11800,552,9809,0,0,0,0,0,0,0,0,0,0,0
503,129,11627,341,9599,0,0,0,0,0,0,0,0,0,0,0
504,129,11903,-113,9388,0,0,0,0,0,0,0,0,0,0,0
505,129,12051,-560,9461,0,0,0,0,0,0,0,0,0,0,0
506,129,12189,-558,9191,0,0,0,0,0,0,0,0,0,0,0
507,129,12715,-606,9290,0,0,0,0,0,0,0,0,0,0,0
508,129,12940,-1190,9460,0,0,0,0,0,0,0,0,0,0,0
509,129,12843,-1121,9250,0,0,0,0,0,0,0,0,0,0,0
510,129,12999,-1233,9153,0,0,0,0,0,0,0,0,0,0,0
511,129,12467,-1607,9148,0,0,0,0,0,0,0,0,0,0,0
512,129,12750,-2187,9166,0,0,0,0,0,0,0,0,0,0,0
513,129,12343,-2216,9242,0,0,0,0,0,0,0,0,0,0,0
514,129,12133,-2865,8963,0,0,0,0,0,0,0,0,0,0,0
515,129,11884,-2890,8906,0,0,0,0,0,0,0,0,0,0,0
516,129,11873,-3120,8690,0,0,0,0,0,0,0,0,0,0,0
517,129,11777,-3459,8735,0,0,0,0,0,0,0,0,0,0,0
518,129,12040,-3594,9016,0,0,0,0,0,0,0,0,0,0,0
519,129,12188,-3731,8831,0,0,0,0,0,0,0,0,0,0,0
520,129,12659,-4033,9052,0,0,0,0,0,0,0,0,0,0,0
521,129,12296,-4029,9057,0,0,0,0,0,0,0,0,0,0,0
522,129,12010,-3457,11838,0,0,0,0,0,0,0,0,0,0,0
523,129,12233,-4141,9964,0,0,0,0,0,0,0,0,0,0,0
524,129,11377,-4889,9230,0,0,0,0,0,0,0,0,0,0,0
525,129,11074,-5160,8812,0,0,0,0,0,0,0,0,0,0,0
526,129,10900,-5038,9197,0,0,0,0,0,0,0,0,0,0,0
527,129,10615,-5680,8793,0,0,0,0,0,0,0,0,0,0,0
528,129,10506,-6043,8556,0,0,0,0,0,0,0,0,0,0,0
529,129,10108,-6433,8541,0,0,0,0,0,0,0,0,0,0,0
530,129,10386,-6514,8380,0,0,0,0,0,0,0,0,0,0,0
531,129,10702,-6572,8537,0,0,0,0,0,0,0,0,0,0,0
532,129,10903,-6071,9913,0,0,0,0,0,0,0,0,0,0,0
533,129,10545,-6027,9262,0,0,0,0,0,0,0,0,0,0,0
534,129,10590,-6685,9048,0,0,0,0,0,0,0,0,0,0,0
535,129,10285,-7321,9171,0,0,0,0,0,0,0,0,0,0,0
536,129,10456,-7100,9108,0,0,0,0,0,0,0,0,0,0,0
537,129,10547,-6875,9471,0,0,0,0,0,0,0,0,0,0,0
538,129,10582,-6977,9277,0,0,0,0,0,0,0,0,0,0,0
539,129,10246,-6979,9192,0,0,0,0,0,0,0,0,0,0,0
540,129,10402,-7266,9000,0,0,0,0,0,0,0,0,0,0,0
541,129,10201,-7289,9149,0,0,0,0,0,0,0,0,0,0,0
542,129,10395,-7583,8723,0,0,0,0,0,0,0,0,0,0,0
543,129,9338,-7519,8426,0,0,0,0,0,0,0,0,0,0,0
544,129,9677,-7907,9130,0,0,0,0,0,0,0,0,0,0,0
545,129,9623,-7759,8847,0,0,0,0,0,0,0,0,0,0,0
546,129,9683,-7930,8982,0,0,0,0,0,0,0,0,0,0,0
547,129,9799,-8116,9363,0,0,0,0,0,0,0,0,0,0,0
548,129,9932,-7827,9525,0,0,0,0,0,0,0,0,0,0,0
549,129,9699,-7884,9216,0,0,0,0,0,0,0,0,0,0,0
550,129,9260,-8528,9096,0,0,0,0,0,0,0,0,0,0,0
551,129,8876,-8601,8972,0,0,0,0,0,0,0,0,0,0,0
552,129,8529,-8979,8631,0,0,0,0,0,0,0,0,0,0,0
553,129,8703,-9115,9169,0,0,0,0,0,0,0,0,0,0,0
554,129,8524,-9223,8862,0,0,0,0,0,0,0,0,0,0,0
555,129,8046,-9258,8889,0,0,0,0,0,0,0,0,0,0,0
556,129,8341,-9395,9301,0,0,0,0,0,0,0,0,0,0,0
557,129,8430,-9221,9108,0,0,0,0,0,0,0,0,0,0,0
558,129,8446,-9259,9464,0,0,0,0,0,0,0,0,0,0,0
559,129,7793,-9180,9430,0,0,0,0,0,0,0,0,0,0,0
560,129,7049,-9700,9231,0,0,0,0,0,0,0,0,0,0,0
561,129,8262,-9820,9400,0,0,0,0,0,0,0,0,0,0,0
562,129,7576,-9513,9466,0,0,0,0,0,0,0,0,0,0,0
563,129,7022,-9896,9157,0,0,0,0,0,0,0,0,0,0,0
564,129,7679,-9655,8912,0,0,0,0,0,0,0,0,0,0,0
565,129,7536,-10313,8970,0,0,0,0,0,0,0,0,0,0,0
566,129,7504,-10403,8595,0,0,0,0,0,0,0,0,0,0,0
567,129,7348,-10388,8327,0,0,0,0,0,0,0,0,0,0,0
568,129,7370,-10253,8403,0,0,0,0,0,0,0,0,0,0,0
569,129,7841,-10156,8953,0,0,0,0,0,0,0,0,0,0,0
570,129,7304,-10415,8468,0,0,0,0,0,0,0,0,0,0,0
571,129,7273,-10143,8862,0,0,0,0,0,0,0,0,0,0,0
572,129,7192,-10240,8828,0,0,0,0,0,0,0,0,0,0,0
573,129,7170,-10092,8780,0,0,0,0,0,0,0,0,0,0,0
574,129,6971,-10786,8222,0,0,0,0,0,0,0,0,0,0,0
575,129,7041,-10439,8644,0,0,0,0,0,0,0,0,0,0,0
576,129,7033,-10355,8711,0,0,0,0,0,0,0,0,0,0,0
577,129,7066,-10504,8802,0,0,0,0,0,0,0,0,0,0,0
578,129,7211,-10523,8724,0,0,0,0,0,0,0,0,0,0,0
579,129,7191,-10478,8874,0,0,0,0,0,0,0,0,0,0,0
580,129,7033,-10686,8786,0,0,0,0,0,0,0,0,0,0,0
581,129,7161,-10621,8668,0,0,0,0,0,0,0,0,0,0,0
582,129,6946,-10265,8613,0,0,0,0,0,0,0,0,0,0,0
583,129,7010,-10661,8592,0,0,0,0,0,0,0,0,0,0,0
584,129,6838,-10567,8579,0,0,0,0,0,0,0,0,0,0,0
585,129,6854,-10682,8412,0,0,0,0,0,0,0,0,0,0,0
586,129,6784,-10373,8682,0,0,0,0,0,0,0,0,0,0,0
587,129,6903,-10330,8820,0,0,0,0,0,0,0,0,0,0,0
588,129,6836,-10480,8809,0,0,0,0,0,0,0,0,0,0,0
589,129,6909,-10295,8882,0,0,0,0,0,0,0,0,0,0,0
590,129,7060,-10009,9137,0,0,0,0,0,0,0,0,0,0,0
591,129,7122,-10045,9227,0,0,0,0,0,0,0,0,0,0,0
592,129,7466,-9906,9620,0,0,0,0,0,0,0,0,0,0,0
593,129,7449,-9724,9622,0,0,0,0,0,0,0,0,0,0,0
594,129,7738,-9607,9437,0,0,0,0,0,0,0,0,0,0,0
595,129,7428,-9399,9609,0,0,0,0,0,0,0,0,0,0,0
596,129,7708,-9161,9803,0,0,0,0,0,0,0,0,0,0,0
597,129,7739,-9451,9684,0,0,0,0,0,0,0,0,0,0,0
598,129,7656,-9195,9630,0,0,0,0,0,0,0,0,0,0,0
599,129,8042,-8988,9503,0,0,0,0,0,0,0,0,0,0,0
600,129,7969,-8688,9915,0,0,0,0,0,0,0,0,0,0,0
601,129,8335,-8467,9862,0,0,0,0,0,0,0,0,0,0,0
602,129,8320,-8359,10023,0,0,0,0,0,0,0,0,0,0,0
603,129,8598,-8424,10012,0,0,0,0,0,0,0,0,0,0,0
604,129,8489,-8596,9950,0,0,0,0,0,0,0,0,0,0,0
605,129,8563,-8321,9942,0,0,0,0,0,0,0,0,0,0,0
606,129,8594,-8349,9699,0,0,0,0,0,0,0,0,0,0,0
607,129,8617,-8608,9902,0,0,0,0,0,0,0,0,0,0,0
608,129,8543,-8644,9585,0,0,0,0,0,0,0,0,0,0,0
609,129,8848,-8455,9705,0,0,0,0,0,0,0,0,0,0,0
610,129,8731,-8393,9222,0,0,0,0,0,0,0,0,0,0,0
611,129,8473,-8681,9146,0,0,0,0,0,0,0,0,0,0,0
612,129,8458,-8640,9442,0,0,0,0,0,0,0,0,0,0,0
613,129,8074,-8655,9181,0,0,0,0,0,0,0,0,0,0,0
614,129,8403,-8398,9120,0,0,0,0,0,0,0,0,0,0,0
615,129,9006,-8221,8904,0,0,0,0,0,0,0,0,0,0,0
616,129,8472,-8183,8772,0,0,0,0,0,0,0,0,0,0,0
617,129,9508,-8269,8642,0,0,0,0,0,0,0,0,0,0,0
618,129,10139,-7735,8860,0,0,0,0,0,0,0,0,0,0,0
619,129,10310,-7980,8925,0,0,0,0,0,0,0,0,0,0,0
620,129,10101,-7946,8607,0,0,0,0,0,0,0,0,0,0,0
621,129,10323,-7750,8448,0,0,0,0,0,0,0,0,0,0,0
622,129,10113,-7928,8498,0,0,0,0,0,0,0,0,0,0,0
623,129,10097,-7932,8186,0,0,0,0,0,0,0,0,0,0,0
624,129,10270,-7935,8168,0,0,0,0,0,0,0,0,0,0,0
625,129,10374,-7576,8433,0,0,0,0,0,0,0,0,0,0,0
626,129,10306,-7120,8413,0,0,0,0,0,0,0,0,0,0,0
627,129,9335,-6705,7643,0,0,0,0,0,0,0,0,0,0,0
628,129,10033,-6063,7425,0,0,0,0,0,0,0,0,0,0,0
629,129,10300,-5675,8943,0,0,0,0,0,0,0,0,0,0,0
630,129,11557,-7826,8597,0,0,0,0,0,0,0,0,0,0,0
631,129,10957,-5956,8597,0,0,0,0,0,0,0,0,0,0,0
632,129,11219,-5006,8578,0,0,0,0,0,0,0,0,0,0,0
633,129,11684,-4525,9014,0,0,0,0,0,0,0,0,0,0,0
634,129,12437,-5173,8700,0,0,0,0,0,0,0,0,0,0,0
635,129,12155,-5247,8060,0,0,0,0,0,0,0,0,0,0,0
636,129,12575,-4993,7946,0,0,0,0,0,0,0,0,0,0,0
637,129,12421,-4152,8041,0,0,0,0,0,0,0,0,0,0,0
638,129,12414,-3687,8249,0,0,0,0,0,0,0,0,0,0,0
639,129,12467,-3082,8092,0,0,0,0,0,0,0,0,0,0,0
640,129,13127,-3319,7697,0,0,0,0,0,0,0,0,0,0,0
641,129,13396,-3316,7790,0,0,0,0,0,0,0,0,0,0,0
642,129,13369,-2628,7729,0,0,0,0,0,0,0,0,0,0,0
643,129,13234,-1690,7819,0,0,0,0,0,0,0,0,0,0,0
644,129,13945,-1576,7693,0,0,0,0,0,0,0,0,0,0,0
645,129,13887,-1677,7733,0,0,0,0,0,0,0,0,0,0,0
646,129,13593,-1572,7285,0,0,0,0,0,0,0,0,0,0,0
647,129,13517,-609,7664,0,0,0,0,0,0,0,0,0,0,0
648,129,13641,-413,7647,0,0,0,0,0,0,0,0,0,0,0
649,129,13529,-303,7391,0,0,0,0,0,0,0,0,0,0,0
650,129,13760,-398,7585,0,0,0,0,0,0,0,0,0,0,0
651,129,13770,268,7105,0,0,0,0,0,0,0,0,0,0,0
652,129,13233,553,6587,0,0,0,0,0,0,0,0,0,0,0
653,129,13940,1285,7309,0,0,0,0,0,0,0,0,0,0,0
654,129,14061,1347,6916,0,0,0,0,0,0,0,0,0,0,0
655,129,13530,852,6624,0,0,0,0,0,0,0,0,0,0,0
656,129,13959,1196,7075,0,0,0,0,0,0,0,0,0,0,0
657,129,13951,2104,6305,0,0,0,0,0,0,0,0,0,0,0
658,129,14449,2846,6335,0,0,0,0,0,0,0,0,0,0,0
659,129,14508,3289,6226,0,0,0,0,0,0,0,0,0,0,0
660,129,13940,3746,6375,0,0,0,0,0,0,0,0,0,0,0
661,129,14277,4390,5891,0,0,0,0,0,0,0,0,0,0,0
662,129,14554,4340,6228,0,0,0,0,0,0,0,0,0,0,0
663,129,14741,4450,5758,0,0,0,0,0,0,0,0,0,0,0
664,129,14499,4338,5987,0,0,0,0,0,0,0,0,0,0,0
665,129,14335,4690,5260,0,0,0,0,0,0,0,0,0,0,0
666,129,13791,5109,5762,0,0,0,0,0,0,0,0,0,0,0
667,129,13863,5659,5647,0,0,0,0,0,0,0,0,0,0,0
668,129,13991,5934,5448,0,0,0,0,0,0,0,0,0,0,0
669,129,14022,5771,4985,0,0,0,0,0,0,0,0,0,0,0
670,129,14629,5960,5558,0,0,0,0,0,0,0,0,0,0,0
671,129,13394,6307,5590,0,0,0,0,0,0,0,0,0,0,0
672,129,13404,7010,4528,0,0,0,0,0,0,0,0,0,0,0
673,129,14145,7562,4901,0,0,0,0,0,0,0,0,0,0,0
674,129,13237,7308,4463,0,0,0,0,0,0,0,0,0,0,0
675,129,13512,7629,4570,0,0,0,0,0,0,0,0,0,0,0
676,129,13747,7909,4268,0,0,0,0,0,0,0,0,0,0,0
677,129,13128,7889,4260,0,0,0,0,0,0,0,0,0,0,0
678,129,13307,8049,4028,0,0,0,0,0,0,0,0,0,0,0
679,129,13594,8058,3788,0,0,0,0,0,0,0,0,0,0,0
680,129,13449,8586,3682,0,0,0,0,0,0,0,0,0,0,0
681,129,13716,8635,3864,0,0,0,0,0,0,0,0,0,0,0
682,129,13104,8605,3802,0,0,0,0,0,0,0,0,0,0,0
683,129,13095,8607,3402,0,0,0,0,0,0,0,0,0,0,0
684,129,12989,8606,3111,0,0,0,0,0,0,0,0,0,0,0
685,129,13089,9288,3569,0,0,0,0,0,0,0,0,0,0,0
686,129,12725,9624,3072,0,0,0,0,0,0,0,0,0,0,0
687,129,12614,9603,3065,0,0,0,0,0,0,0,0,0,0,0
688,129,12616,9894,2836,0,0,0,0,0,0,0,0,0,0,0
689,129,12290,9813,2941,0,0,0,0,0,0,0,0,0,0,0
690,129,11950,9760,2932,0,0,0,0,0,0,0,0,0,0,0
691,129,12068,10186,3142,0,0,0,0,0,0,0,0,0,0,0
692,129,11941,10481,2578,0,0,0,0,0,0,0,0,0,0,0
693,129,11883,10704,2519,0,0,0,0,0,0,0,0,0,0,0
694,129,11316,10426,2439,0,0,0,0,0,0,0,0,0,0,0
695,129,11336,11045,2398,0,0,0,0,0,0,0,0,0,0,0
696,129,11352,11245,2544,0,0,0,0,0,0,0,0,0,0,0
697,129,11255,11427,2495,0,0,0,0,0,0,0,0,0,0,0
698,129,10585,11565,2298,0,0,0,0,0,0,0,0,0,0,0
699,129,10238,11391,2148,0,0,0,0,0,0,0,0,0,0,0
700,129,10414,11680,1987,0,0,0,0,0,0,0,0,0,0,0
701,129,10310,12373,1855,0,0,0,0,0,0,0,0,0,0,0
702,129,10234,12191,1471,0,0,0,0,0,0,0,0,0,0,0
703,129,10840,12460,1449,0,0,0,0,0,0,0,0,0,0,0
704,129,11133,12630,2012,0,0,0,0,0,0,0,0,0,0,0
705,129,10699,12490,1512,0,0,0,0,0,0,0,0,0,0,0
706,129,9998,12848,1107,0,0,0,0,0,0,0,0,0,0,0
707,129,10154,13447,1257,0,0,0,0,0,0,0,0,0,0,0
708,129,10002,13905,1342,0,0,0,0,0,0,0,0,0,0,0
709,129,10031,13699,839,0,0,0,0,0,0,0,0,0,0,0
710,129,9283,13676,891,0,0,0,0,0,0,0,0,0,0,0
711,129,9041,14063,938,0,0,0,0,0,0,0,0,0,0,0
712,129,8600,14346,811,0,0,0,0,0,0,0,0,0,0,0
713,129,9045,14705,359,0,0,0,0,0,0,0,0,0,0,0
714,129,9180,14777,849,0,0,0,0,0,0,0,0,0,0,0
715,129,8704,14599,547,0,0,0,0,0,0,0,0,0,0,0
716,129,8732,14423,-346,0,0,0,0,0,0,0,0,0,0,0
717,129,9182,15377,665,0,0,0,0,0,0,0,0,0,0,0
718,129,8220,15124,946,0,0,0,0,0,0,0,0,0,0,0
719,129,7511,15034,247,0,0,0,0,0,0,0,0,0,0,0
720,129,7130,14150,47,0,0,0,0,0,0,0,0,0,0,0
721,129,8619,14187,-1061,0,0,0,0,0,0,0,0,0,0,0
722,129,8383,14930,139,0,0,0,0,0,0,0,0,0,0,0
723,129,7191,15848,143,0,0,0,0,0,0,0,0,0,0,0
724,129,6626,15164,-284,0,0,0,0,0,0,0,0,0,0,0
725,129,5959,15022,-683,0,0,0,0,0,0,0,0,0,0,0
726,129,9462,14352,752,0,0,0,0,0,0,0,0,0,0,0
727,129,7049,16456,-55,0,0,0,0,0,0,0,0,0,0,0
728,129,6695,15714,-710,0,0,0,0,0,0,0,0,0,0,0
729,129,6614,15235,142,0,0,0,0,0,0,0,0,0,0,0
730,129,5687,15822,-37,0,0,0,0,0,0,0,0,0,0,0
731,129,5400,16120,33,0,0,0,0,0,0,0,0,0,0,0
732,129,5166,15995,-300,0,0,0,0,0,0,0,0,0,0,0
733,129,5436,15316,-473,0,0,0,0,0,0,0,0,0,0,0
734,129,5607,15817,217,0,0,0,0,0,0,0,0,0,0,0
735,129,5014,15762,916,0,0,0,0,0,0,0,0,0,0,0
736,129,4934,15363,489,0,0,0,0,0,0,0,0,0,0,0
737,129,4715,15191,97,0,0,0,0,0,0,0,0,0,0,0
738,129,5107,15372,136,0,0,0,0,0,0,0,0,0,0,0
739,129,5376,16557,333,0,0,0,0,0,0,0,0,0,0,0
740,129,4707,16617,645,0,0,0,0,0,0,0,0,0,0,0
741,129,4425,16242,685,0,0,0,0,0,0,0,0,0,0,0
742,129,4288,16574,895,0,0,0,0,0,0,0,0,0,0,0
743,129,4133,16784,1213,0,0,0,0,0,0,0,0,0,0,0
744,129,4119,16409,1344,0,0,0,0,0,0,0,0,0,0,0
745,129,3711,16527,1322,0,0,0,0,0,0,0,0,0,0,0
746,129,3435,16359,1239,0,0,0,0,0,0,0,0,0,0,0
747,129,2751,16032,1221,0,0,0,0,0,0,0,0,0,0,0
748,129,2199,16024,1560,0,0,0,0,0,0,0,0,0,0,0
749,129,2124,16422,1473,0,0,0,0,0,0,0,0,0,0,0
750,129,1942,16470,1311,0,0,0,0,0,0,0,0,0,0,0
751,129,2299,16624,1124,0,0,0,0,0,0,0,0,0,0,0
752,129,2339,16255,1168,0,0,0,0,0,0,0,0,0,0,0
753,129,1579,15959,1257,0,0,0,0,0,0,0,0,0,0,0
754,129,1169,16176,599,0,0,0,0,0,0,0,0,0,0,0
755,129,1952,15760,655,0,0,0,0,0,0,0,0,0,0,0
756,129,2764,16033,896,0,0,0,0,0,0,0,0,0,0,0
757,129,2115,16576,422,0,0,0,0,0,0,0,0,0,0,0
758,129,1913,17489,526,0,0,0,0,0,0,0,0,0,0,0
759,129,2555,17622,482,0,0,0,0,0,0,0,0,0,0,0
760,129,2953,16465,1378,0,0,0,0,0,0,0,0,0,0,0
761,129,2236,17377,705,0,0,0,0,0,0,0,0,0,0,0
762,129,2140,17431,744,0,0,0,0,0,0,0,0,0,0,0
763,129,2131,17172,1261,0,0,0,0,0,0,0,0,0,0,0
764,129,2209,16039,625,0,0,0,0,0,0,0,0,0,0,0
765,129,2030,15626,958,0,0,0,0,0,0,0,0,0,0,0
766,129,1633,17122,595,0,0,0,0,0,0,0,0,0,0,0
767,129,1657,17209,986,0,0,0,0,0,0,0,0,0,0,0
768,129,1737,16825,409,0,0,0,0,0,0,0,0,0,0,0
769,129,1600,16327,710,0,0,0,0,0,0,0,0,0,0,0
770,129,1094,16433,411,0,0,0,0,0,0,0,0,0,0,0
771,129,893,16551,659,0,0,0,0,0,0,0,0,0,0,0
772,129,214,16770,-13,0,0,0,0,0,0,0,0,0,0,0
773,129,400,16188,568,0,0,0,0,0,0,0,0,0,0,0
774,129,824,16327,387,0,0,0,0,0,0,0,0,0,0,0
775,129,819,16835,340,0,0,0,0,0,0,0,0,0,0,0
776,129,810,16751,613,0,0,0,0,0,0,0,0,0,0,0
777,129,1159,16512,599,0,0,0,0,0,0,0,0,0,0,0
778,129,1130,16366,665,0,0,0,0,0,0,0,0,0,0,0
779,129,1238,16330,302,0,0,0,0,0,0,0,0,0,0,0
780,129,1211,16394,-64,0,0,0,0,0,0,0,0,0,0,0
781,129,2031,15440,-92,0,0,0,0,0,0,0,0,0,0,0
782,129,964,15955,221,0,0,0,0,0,0,0,0,0,0,0
783,129,379,16581,56,0,0,0,0,0,0,0,0,0,0,0
784,129,-87,17742,282,0,0,0,0,0,0,0,0,0,0,0
785,129,140,17291,246,0,0,0,0,0,0,0,0,0,0,0
786,129,500,16524,-4,0,0,0,0,0,0,0,0,0,0,0
787,129,796,16349,464,0,0,0,0,0,0,0,0,0,0,0
788,129,416,16427,-116,0,0,0,0,0,0,0,0,0,0,0
789,129,-133,16516,201,0,0,0,0,0,0,0,0,0,0,0
790,129,-175,16282,126,0,0,0,0,0,0,0,0,0,0,0
791,129,77,16081,359,0,0,0,0,0,0,0,0,0,0,0
792,129,234,16362,272,0,0,0,0,0,0,0,0,0,0,0
793,129,459,16629,-3,0,0,0,0,0,0,0,0,0,0,0
794,129,310,16623,459,0,0,0,0,0,0,0,0,0,0,0
795,129,159,16335,770,0,0,0,0,0,0,0,0,0,0,0
796,129,180,16271,448,0,0,0,0,0,0,0,0,0,0,0
797,129,607,16358,558,0,0,0,0,0,0,0,0,0,0,0
798,129,858,16360,341,0,0,0,0,0,0,0,0,0,0,0
799,129,725,16838,818,0,0,0,0,0,0,0,0,0,0,0
800,129,641,17250,1383,0,0,0,0,0,0,0,0,0,0,0
801,129,639,17121,1237,0,0,0,0,0,0,0,0,0,0,0
802,129,819,16936,421,0,0,0,0,0,0,0,0,0,0,0
803,129,1467,16319,559,0,0,0,0,0,0,0,0,0,0,0
804,129,1496,16099,1152,0,0,0,0,0,0,0,0,0,0,0
805,129,1261,16236,897,0,0,0,0,0,0,0,0,0,0,0
806,129,1147,16472,946,0,0,0,0,0,0,0,0,0,0,0
807,129,1503,16088,495,0,0,0,0,0,0,0,0,0,0,0
808,129,1721,16318,646,0,0,0,0,0,0,0,0,0,0,0
809,129,2109,16684,778,0,0,0,0,0,0,0,0,0,0,0
810,129,1665,16680,852,0,0,0,0,0,0,0,0,0,0,0
811,129,1637,16452,546,0,0,0,0,0,0,0,0,0,0,0
812,129,1653,16442,95,0,0,0,0,0,0,0,0,0,0,0
813,129,1691,17041,81,0,0,0,0,0,0,0,0,0,0,0
814,129,1598,16959,675,0,0,0,0,0,0,0,0,0,0,0
815,129,1418,16609,649,0,0,0,0,0,0,0,0,0,0,0
816,129,1536,16687,401,0,0,0,0,0,0,0,0,0,0,0
817,129,2093,16612,-1,0,0,0,0,0,0,0,0,0,0,0
818,129,2328,16162,452,0,0,0,0,0,0,0,0,0,0,0
819,129,2482,16295,479,0,0,0,0,0,0,0,0,0,0,0
820,129,2313,16716,18,0,0,0,0,0,0,0,0,0,0,0
821,129,2997,16545,-88,0,0,0,0,0,0,0,0,0,0,0
822,129,3098,16378,65,0,0,0,0,0,0,0,0,0,0,0
823,129,3028,16308,-306,0,0,0,0,0,0,0,0,0,0,0
824,129,2898,16619,-414,0,0,0,0,0,0,0,0,0,0,0
825,129,2918,16714,-79,0,0,0,0,0,0,0,0,0,0,0
826,129,3182,16381,-161,0,0,0,0,0,0,0,0,0,0,0
827,129,3438,16238,-345,0,0,0,0,0,0,0,0,0,0,0
828,129,4103,15838,-283,0,0,0,0,0,0,0,0,0,0,0
829,129,4086,16731,-364,0,0,0,0,0,0,0,0,0,0,0
830,129,3659,16925,-709,0,0,0,0,0,0,0,0,0,0,0
831,129,3701,16367,-628,0,0,0,0,0,0,0,0,0,0,0
832,129,4347,15869,-839,0,0,0,0,0,0,0,0,0,0,0
833,129,4155,16235,-440,0,0,0,0,0,0,0,0,0,0,0
834,129,4196,16063,-397,0,0,0,0,0,0,0,0,0,0,0
835,129,3900,16464,-641,0,0,0,0,0,0,0,0,0,0,0
836,129,3769,16338,-739,0,0,0,0,0,0,0,0,0,0,0
837,129,3968,16002,-688,0,0,0,0,0,0,0,0,0,0,0
838,129,4310,16234,-560,0,0,0,0,0,0,0,0,0,0,0
839,129,4446,16689,-555,0,0,0,0,0,0,0,0,0,0,0
840,129,4607,16614,-394,0,0,0,0,0,0,0,0,0,0,0
841,129,4443,16372,-585,0,0,0,0,0,0,0,0,0,0,0
842,129,4721,16122,-662,0,0,0,0,0,0,0,0,0,0,0
843,129,4805,16266,-293,0,0,0,0,0,0,0,0,0,0,0
844,129,4771,16253,107,0,0,0,0,0,0,0,0,0,0,0
845,129,5051,15984,-265,0,0,0,0,0,0,0,0,0,0,0
846,129,5440,15823,231,0,0,0,0,0,0,0,0,0,0,0
847,129,5485,16227,99,0,0,0,0,0,0,0,0,0,0,0
848,129,5512,15883,258,0,0,0,0,0,0,0,0,0,0,0
849,129,5827,15499,414,0,0,0,0,0,0,0,0,0,0,0
850,129,6060,15759,300,0,0,0,0,0,0,0,0,0,0,0
851,129,6369,15690,571,0,0,0,0,0,0,0,0,0,0,0
852,129,6633,15677,1031,0,0,0,0,0,0,0,0,0,0,0
853,129,6995,15454,694,0,0,0,0,0,0,0,0,0,0,0
854,129,6985,15466,774,0,0,0,0,0,0,0,0,0,0,0
855,129,7506,15430,990,0,0,0,0,0,0,0,0,0,0,0
856,129,7468,15088,1026,0,0,0,0,0,0,0,0,0,0,0
857,129,7845,14815,1078,0,0,0,0,0,0,0,0,0,0,0
858,129,7924,14615,1281,0,0,0,0,0,0,0,0,0,0,0
859,129,7809,14594,1239,0,0,0,0,0,0,0,0,0,0,0
860,129,7663,14391,1255,0,0,0,0,0,0,0,0,0,0,0
861,129,8105,13888,1413,0,0,0,0,0,0,0,0,0,0,0
862,129,8104,13552,1360,0,0,0,0,0,0,0,0,0,0,0
863,129,8187,13316,1496,0,0,0,0,0,0,0,0,0,0,0
864,129,8503,13696,1638,0,0,0,0,0,0,0,0,0,0,0
865,129,9079,13730,1688,0,0,0,0,0,0,0,0,0,0,0
866,129,9363,13746,1937,0,0,0,0,0,0,0,0,0,0,0
867,129,10030,13535,2057,0,0,0,0,0,0,0,0,0,0,0
868,129,9664,13617,1988,0,0,0,0,0,0,0,0,0,0,0
869,129,9899,13708,1982,0,0,0,0,0,0,0,0,0,0,0
870,129,10012,13815,2012,0,0,0,0,0,0,0,0,0,0,0
871,129,10393,13536,2368,0,0,0,0,0,0,0,0,0,0,0
872,129,10521,13340,2421,0,0,0,0,0,0,0,0,0,0,0
873,129,10020,13029,2520,0,0,0,0,0,0,0,0,0,0,0
874,129,10383,12967,2859,0,0,0,0,0,0,0,0,0,0,0
875,129,10848,12899,2958,0,0,0,0,0,0,0,0,0,0,0
876,129,10235,12136,2907,0,0,0,0,0,0,0,0,0,0,0
877,129,10459,11463,2661,0,0,0,0,0,0,0,0,0,0,0
878,129,10258,11367,3289,0,0,0,0,0,0,0,0,0,0,0
879,129,10917,11464,3062,0,0,0,0,0,0,0,0,0,0,0
880,129,11105,11268,3448,0,0,0,0,0,0,0,0,0,0,0
881,129,10560,10586,3724,0,0,0,0,0,0,0,0,0,0,0
882,129,10694,10432,3416,0,0,0,0,0,0,0,0,0,0,0
883,129,11247,10559,3555,0,0,0,0,0,0,0,0,0,0,0
884,129,11453,10557,3579,0,0,0,0,0,0,0,0,0,0,0
885,129,11663,10549,3889,0,0,0,0,0,0,0,0,0,0,0
886,129,11718,10274,4103,0,0,0,0,0,0,0,0,0,0,0
887,129,11672,9956,3967,0,0,0,0,0,0,0,0,0,0,0
888,129,11539,9967,4289,0,0,0,0,0,0,0,0,0,0,0
889,129,11591,9966,4542,0,0,0,0,0,0,0,0,0,0,0
890,129,11790,10007,5094,0,0,0,0,0,0,0,0,0,0,0
891,129,11909,9827,4892,0,0,0,0,0,0,0,0,0,0,0
892,129,11600,9679,5168,0,0,0,0,0,0,0,0,0,0,0
893,129,11585,9441,5433,0,0,0,0,0,0,0,0,0,0,0
894,129,11400,9408,5444,0,0,0,0,0,0,0,0,0,0,0
895,129,11321,9239,5368,0,0,0,0,0,0,0,0,0,0,0
896,129,11070,9021,5710,0,0,0,0,0,0,0,0,0,0,0
897,129,11370,9136,5921,0,0,0,0,0,0,0,0,0,0,0
898,129,11012,8867,5808,0,0,0,0,0,0,0,0,0,0,0
899,129,11545,8858,6178,0,0,0,0,0,0,0,0,0,0,0
900,129,11349,8743,6122,0,0,0,0,0,0,0,0,0,0,0
901,129,11456,8731,6068,0,0,0,0,0,0,0,0,0,0,0
902,129,11543,8493,6060,0,0,0,0,0,0,0,0,0,0,0
903,129,11537,8360,6161,0,0,0,0,0,0,0,0,0,0,0
904,129,11635,8470,6265,0,0,0,0,0,0,0,0,0,0,0
905,129,11615,8423,6410,0,0,0,0,0,0,0,0,0,0,0
906,129,11577,8198,6545,0,0,0,0,0,0,0,0,0,0,0
907,129,11847,8279,6481,0,0,0,0,0,0,0,0,0,0,0
908,129,11788,8306,6655,0,0,0,0,0,0,0,0,0,0,0
909,129,11743,8127,6666,0,0,0,0,0,0,0,0,0,0,0
910,129,11504,7919,6527,0,0,0,0,0,0,0,0,0,0,0
911,129,11683,7914,6643,0,0,0,0,0,0,0,0,0,0,0
912,129,11514,7622,6408,0,0,0,0,0,0,0,0,0,0,0
913,129,11409,7745,6692,0,0,0,0,0,0,0,0,0,0,0
914,129,11664,7897,6963,0,0,0,0,0,0,0,0,0,0,0
915,129,11748,7917,6830,0,0,0,0,0,0,0,0,0,0,0
916,129,11520,7724,6741,0,0,0,0,0,0,0,0,0,0,0
917,129,11578,7886,6905,0,0,0,0,0,0,0,0,0,0,0
918,129,11669,8040,7042,0,0,0,0,0,0,0,0,0,0,0
919,129,11492,8135,6943,0,0,0,0,0,0,0,0,0,0,0
920,129,11605,8089,6696,0,0,0,0,0,0,0,0,0,0,0
921,129,11676,8068,7022,0,0,0,0,0,0,0,0,0,0,0
922,129,11645,7978,6865,0,0,0,0,0,0,0,0,0,0,0
923,129,11630,8127,7016,0,0,0,0,0,0,0,0,0,0,0
924,129,11681,8053,6601,0,0,0,0,0,0,0,0,0,0,0
925,129,11710,7670,6645,0,0,0,0,0,0,0,0,0,0,0
926,129,11594,7946,6565,0,0,0,0,0,0,0,0,0,0,0
927,129,11450,8153,6537,0,0,0,0,0,0,0,0,0,0,0
928,129,11499,8269,6603,0,0,0,0,0,0,0,0,0,0,0
929,129,11409,8197,6291,0,0,0,0,0,0,0,0,0,0,0
930,129,11379,8105,6725,0,0,0,0,0,0,0,0,0,0,0
931,129,11390,8228,6249,0,0,0,0,0,0,0,0,0,0,0
932,129,11590,8475,6410,0,0,0,0,0,0,0,0,0,0,0
933,129,11570,8469,5950,0,0,0,0,0,0,0,0,0,0,0
934,129,11668,8521,5872,0,0,0,0,0,0,0,0,0,0,0
935,129,11777,8656,5787,0,0,0,0,0,0,0,0,0,0,0
936,129,11784,8868,5903,0,0,0,0,0,0,0,0,0,0,0
937,129,11771,8938,5496,0,0,0,0,0,0,0,0,0,0,0
938,129,12098,9122,5670,0,0,0,0,0,0,0,0,0,0,0
939,129,12075,9197,5489,0,0,0,0,0,0,0,0,0,0,0
940,129,11975,9177,5176,0,0,0,0,0,0,0,0,0,0,0
941,129,11867,9193,4935,0,0,0,0,0,0,0,0,0,0,0
942,129,11793,9310,4879,0,0,0,0,0,0,0,0,0,0,0
943,129,11673,9686,4818,0,0,0,0,0,0,0,0,0,0,0
944,129,11753,9790,4794,0,0,0,0,0,0,0,0,0,0,0
945,129,11485,9799,4247,0,0,0,0,0,0,0,0,0,0,0
946,129,11669,9817,4575,0,0,0,0,0,0,0,0,0,0,0
947,129,11474,10083,4006,0,0,0,0,0,0,0,0,0,0,0
948,129,12004,10362,4479,0,0,0,0,0,0,0,0,0,0,0
949,129,12263,10463,4513,0,0,0,0,0,0,0,0,0,0,0
950,129,12557,10736,4087,0,0,0,0,0,0,0,0,0,0,0
951,129,12795,10885,4269,0,0,0,0,0,0,0,0,0,0,0
952,129,12862,10957,4191,0,0,0,0,0,0,0,0,0,0,0
953,129,13169,11111,3978,0,0,0,0,0,0,0,0,0,0,0
954,129,12964,10950,3658,0,0,0,0,0,0,0,0,0,0,0
955,129,12698,10725,3836,0,0,0,0,0,0,0,0,0,0,0
956,129,12736,10630,3932,0,0,0,0,0,0,0,0,0,0,0
957,129,12557,10727,3803,0,0,0,0,0,0,0,0,0,0,0
958,129,12511,10623,3769,0,0,0,0,0,0,0,0,0,0,0
959,129,12348,10613,3947,0,0,0,0,0,0,0,0,0,0,0
960,129,12440,10829,4060,0,0,0,0,0,0,0,0,0,0,0
961,129,12441,10893,4079,0,0,0,0,0,0,0,0,0,0,0
962,129,12402,10666,4242,0,0,0,0,0,0,0,0,0,0,0
963,129,12567,10667,4412,0,0,0,0,0,0,0,0,0,0,0
964,129,12594,10796,4445,0,0,0,0,0,0,0,0,0,0,0
965,129,12551,10539,4660,0,0,0,0,0,0,0,0,0,0,0
966,129,12408,10541,4960,0,0,0,0,0,0,0,0,0,0,0
967,129,12361,10425,4934,0,0,0,0,0,0,0,0,0,0,0
968,129,12298,10177,5130,0,0,0,0,0,0,0,0,0,0,0
969,129,12188,9814,5579,0,0,0,0,0,0,0,0,0,0,0
970,129,11832,9613,5588,0,0,0,0,0,0,0,0,0,0,0
971,129,12019,9330,5468,0,0,0,0,0,0,0,0,0,0,0
972,129,12334,9033,5904,0,0,0,0,0,0,0,0,0,0,0
973,129,12934,8740,5633,0,0,0,0,0,0,0,0,0,0,0
974,129,11958,8380,6312,0,0,0,0,0,0,0,0,0,0,0
975,129,12666,8376,6239,0,0,0,0,0,0,0,0,0,0,0
976,129,13264,7865,6182,0,0,0,0,0,0,0,0,0,0,0
977,129,12325,7299,7183,0,0,0,0,0,0,0,0,0,0,0
978,129,12280,7169,7097,0,0,0,0,0,0,0,0,0,0,0
979,129,12573,6652,6346,0,0,0,0,0,0,0,0,0,0,0
980,129,11760,6246,7238,0,0,0,0,0,0,0,0,0,0,0
981,129,25227,4179,12935,0,0,0,0,0,0,0,0,0,0,0
982,129,10223,4815,6251,0,0,0,0,0,0,0,0,0,0,0
983,129,13182,4675,7544,0,0,0,0,0,0,0,0,0,0,0
984,129,11971,5007,7810,0,0,0,0,0,0,0,0,0,0,0
985,129,12441,4255,7950,0,0,0,0,0,0,0,0,0,0,0
986,129,12010,4340,7959,0,0,0,0,0,0,0,0,0,0,0
987,129,11829,3630,7222,0,0,0,0,0,0,0,0,0,0,0
988,129,12784,3313,8170,0,0,0,0,0,0,0,0,0,0,0
989,129,12421,3736,8829,0,0,0,0,0,0,0,0,0,0,0
990,129,11682,3365,8652,0,0,0,0,0,0,0,0,0,0,0
991,129,11758,3095,8449,0,0,0,0,0,0,0,0,0,0,0
992,129,11885,2247,8365,0,0,0,0,0,0,0,0,0,0,0
993,129,11889,2599,8643,0,0,0,0,0,0,0,0,0,0,0
994,129,12652,3540,9096,0,0,0,0,0,0,0,0,0,0,0
995,129,13139,4647,9543,0,0,0,0,0,0,0,0,0,0,0
996,129,13132,4317,9012,0,0,0,0,0,0,0,0,0,0,0
997,129,12912,3018,8682,0,0,0,0,0,0,0,0,0,0,0
998,129,12902,2569,9518,0,0,0,0,0,0,0,0,0,0,0
999,129,12766,2643,9296,0,0,0,0,0,0,0,0,0,0,0
1000,129,12862,2610,9438,0,0,0,0,0,0,0,0,0,0,0
1001,129,12236,1915,9052,0,0,0,0,0,0,0,0,0,0,0
1002,129,12016,1480,8138,0,0,0,0,0,0,0,0,0,0,0
1003,129,12520,1994,8908,0,0,0,0,0,0,0,0,0,0,0
1004,129,12694,1821,9107,0,0,0,0,0,0,0,0,0,0,0
1005,129,12428,879,9233,0,0,0,0,0,0,0,0,0,0,0
1006,129,12433,36,8683,0,0,0,0,0,0,0,0,0,0,0
1007,129,12477,-370,8959,0,0,0,0,0,0,0,0,0,0,0
1008,129,11163,-1097,8647,0,0,0,0,0,0,0,0,0,0,0
1009,129,10817,-1556,8480,0,0,0,0,0,0,0,0,0,0,0
1010,129,11337,-1681,7960,0,0,0,0,0,0,0,0,0,0,0
1011,129,11606,-1226,8552,0,0,0,0,0,0,0,0,0,0,0
1012,129,12168,-1561,8408,0,0,0,0,0,0,0,0,0,0,0
1013,129,12777,-1371,8929,0,0,0,0,0,0,0,0,0,0,0
1014,129,12969,-1337,9058,0,0,0,0,0,0,0,0,0,0,0
1015,129,12879,-1701,9041,0,0,0,0,0,0,0,0,0,0,0
1016,129,13094,-1670,9275,0,0,0,0,0,0,0,0,0,0,0
1017,129,13215,-1770,8479,0,0,0,0,0,0,0,0,0,0,0
1018,129,13288,-1725,8916,0,0,0,0,0,0,0,0,0,0,0
1019,129,12756,-1920,8611,0,0,0,0,0,0,0,0,0,0,0
1020,129,12748,-1750,8711,0,0,0,0,0,0,0,0,0,0,0
1021,129,12739,-1824,8730,0,0,0,0,0,0,0,0,0,0,0
1022,129,11959,-2218,8155,0,0,0,0,0,0,0,0,0,0,0
1023,129,12445,-2959,7971,0,0,0,0,0,0,0,0,0,0,0
1024,129,12640,-2507,8750,0,0,0,0,0,0,0,0,0,0,0
1025,129,12782,-2438,8043,0,0,0,0,0,0,0,0,0,0,0
1026,129,13037,-2805,7951,0,0,0,0,0,0,0,0,0,0,0
1027,129,12898,-3415,7483,0,0,0,0,0,0,0,0,0,0,0
1028,129,13325,-3043,7326,0,0,0,0,0,0,0,0,0,0,0
1029,129,13444,-3059,7388,0,0,0,0,0,0,0,0,0,0,0
1030,129,13069,-3919,7142,0,0,0,0,0,0,0,0,0,0,0
1031,129,13150,-3937,7243,0,0,0,0,0,0,0,0,0,0,0
1032,129,13120,-3751,7147,0,0,0,0,0,0,0,0,0,0,0
1033,129,13219,-3459,7734,0,0,0,0,0,0,0,0,0,0,0
1034,129,13409,-3717,7430,0,0,0,0,0,0,0,0,0,0,0
1035,129,13830,-3636,7812,0,0,0,0,0,0,0,0,0,0,0
1036,129,13789,-3322,7220,0,0,0,0,0,0,0,0,0,0,0
1037,129,13694,-3539,7362,0,0,0,0,0,0,0,0,0,0,0
1038,129,13951,-3324,7030,0,0,0,0,0,0,0,0,0,0,0
1039,129,13972,-3611,6945,0,0,0,0,0,0,0,0,0,0,0
1040,129,13740,-3558,6843,0,0,0,0,0,0,0,0,0,0,0
1041,129,13386,-3631,6422,0,0,0,0,0,0,0,0,0,0,0
1042,129,13939,-3677,6886,0,0,0,0,0,0,0,0,0,0,0
1043,129,13810,-3966,6160,0,0,0,0,0,0,0,0,0,0,0
1044,129,13948,-4037,6455,0,0,0,0,0,0,0,0,0,0,0
1045,129,13573,-4192,6443,0,0,0,0,0,0,0,0,0,0,0
1046,129,13531,-4126,6149,0,0,0,0,0,0,0,0,0,0,0
1047,129,13725,-4059,5915,0,0,0,0,0,0,0,0,0,0,0
1048,129,13359,-4118,5582,0,0,0,0,0,0,0,0,0,0,0
1049,129,13868,-4149,6065,0,0,0,0,0,0,0,0,0,0,0
1050,129,13894,-4094,5781,0,0,0,0,0,0,0,0,0,0,0
1051,129,13649,-4424,6088,0,0,0,0,0,0,0,0,0,0,0
1052,129,13667,-3951,5817,0,0,0,0,0,0,0,0,0,0,0
1053,129,13763,-4127,5763,0,0,0,0,0,0,0,0,0,0,0
1054,129,13802,-4092,5696,0,0,0,0,0,0,0,0,0,0,0
1055,129,13907,-3960,6046,0,0,0,0,0,0,0,0,0,0,0
1056,129,14035,-4218,5975,0,0,0,0,0,0,0,0,0,0,0
1057,129,14183,-4033,5487,0,0,0,0,0,0,0,0,0,0,0
1058,129,14151,-3361,6027,0,0,0,0,0,0,0,0,0,0,0
1059,129,14393,-3588,5317,0,0,0,0,0,0,0,0,0,0,0
1060,129,14618,-3519,5105,0,0,0,0,0,0,0,0,0,0,0
1061,129,14502,-3518,5069,0,0,0,0,0,0,0,0,0,0,0
1062,129,14607,-3501,5250,0,0,0,0,0,0,0,0,0,0,0
1063,129,14722,-3630,5227,0,0,0,0,0,0,0,0,0,0,0
1064,129,14806,-3727,5141,0,0,0,0,0,0,0,0,0,0,0
1065,129,14826,-4189,5294,0,0,0,0,0,0,0,0,0,0,0
1066,129,14451,-4307,5072,0,0,0,0,0,0,0,0,0,0,0
1067,129,14713,-3930,5028,0,0,0,0,0,0,0,0,0,0,0
1068,129,14738,-4198,4796,0,0,0,0,0,0,0,0,0,0,0
1069,129,14719,-4158,4756,0,0,0,0,0,0,0,0,0,0,0
1070,129,14533,-4326,5105,0,0,0,0,0,0,0,0,0,0,0
1071,129,14439,-4204,4714,0,0,0,0,0,0,0,0,0,0,0
1072,129,14282,-4108,4637,0,0,0,0,0,0,0,0,0,0,0
1073,129,13979,-3975,4792,0,0,0,0,0,0,0,0,0,0,0
1074,129,14124,-4061,4925,0,0,0,0,0,0,0,0,0,0,0
1075,129,14113,-4052,5115,0,0,0,0,0,0,0,0,0,0,0
1076,129,14241,-3776,5083,0,0,0,0,0,0,0,0,0,0,0
1077,129,13584,-3480,4968,0,0,0,0,0,0,0,0,0,0,0
1078,129,13573,-2791,5259,0,0,0,0,0,0,0,0,0,0,0
1079,129,14191,-2191,6102,0,0,0,0,0,0,0,0,0,0,0
1080,129,14171,-2296,6304,0,0,0,0,0,0,0,0,0,0,0
1081,129,14121,-1942,6191,0,0,0,0,0,0,0,0,0,0,0
1082,129,14140,-1911,6196,0,0,0,0,0,0,0,0,0,0,0
1083,129,13982,-1958,6213,0,0,0,0,0,0,0,0,0,0,0
1084,129,13892,-1156,6506,0,0,0,0,0,0,0,0,0,0,0
1085,129,14050,-483,6667,0,0,0,0,0,0,0,0,0,0,0
1086,129,13985,-592,6343,0,0,0,0,0,0,0,0,0,0,0
1087,129,13624,-934,6447,0,0,0,0,0,0,0,0,0,0,0
1088,129,13921,-425,6886,0,0,0,0,0,0,0,0,0,0,0
1089,129,13616,34,7310,0,0,0,0,0,0,0,0,0,0,0
1090,129,13665,152,6856,0,0,0,0,0,0,0,0,0,0,0
1091,129,14019,210,7139,0,0,0,0,0,0,0,0,0,0,0
1092,129,13712,549,7582,0,0,0,0,0,0,0,0,0,0,0
1093,129,13504,1293,7815,0,0,0,0,0,0,0,0,0,0,0
1094,129,13604,1280,7421,0,0,0,0,0,0,0,0,0,0,0
1095,129,13679,920,7220,0,0,0,0,0,0,0,0,0,0,0
1096,129,12644,824,6948,0,0,0,0,0,0,0,0,0,0,0
1097,129,12496,949,7529,0,0,0,0,0,0,0,0,0,0,0
1098,129,12833,1952,7280,0,0,0,0,0,0,0,0,0,0,0
1099,129,13137,2007,7558,0,0,0,0,0,0,0,0,0,0,0
1100,129,12948,2289,7349,0,0,0,0,0,0,0,0,0,0,0
1101,129,12962,2750,7232,0,0,0,0,0,0,0,0,0,0,0
1102,129,13369,3539,7471,0,0,0,0,0,0,0,0,0,0,0
1103,129,13806,3746,7271,0,0,0,0,0,0,0,0,0,0,0
1104,129,13560,4101,6674,0,0,0,0,0,0,0,0,0,0,0
1105,129,13539,4642,7017,0,0,0,0,0,0,0,0,0,0,0
1106,129,13480,4825,6962,0,0,0,0,0,0,0,0,0,0,0
1107,129,13935,5145,6661,0,0,0,0,0,0,0,0,0,0,0
1108,129,14044,5219,6588,0,0,0,0,0,0,0,0,0,0,0
1109,129,13818,5561,6199,0,0,0,0,0,0,0,0,0,0,0
1110,129,13287,5258,6001,0,0,0,0,0,0,0,0,0,0,0
1111,129,12827,6066,6453,0,0,0,0,0,0,0,0,0,0,0
1112,129,12850,6540,6195,0,0,0,0,0,0,0,0,0,0,0
1113,129,13314,6717,6248,0,0,0,0,0,0,0,0,0,0,0
1114,129,12941,6515,5520,0,0,0,0,0,0,0,0,0,0,0
1115,129,12132,6823,5909,0,0,0,0,0,0,0,0,0,0,0
1116,129,12439,7653,6011,0,0,0,0,0,0,0,0,0,0,0
1117,129,12955,8071,5988,0,0,0,0,0,0,0,0,0,0,0
1118,129,12813,8339,5627,0,0,0,0,0,0,0,0,0,0,0
1119,129,12382,8115,5088,0,0,0,0,0,0,0,0,0,0,0
1120,129,12116,8626,5440,0,0,0,0,0,0,0,0,0,0,0
1121,129,12486,9321,5234,0,0,0,0,0,0,0,0,0,0,0
1122,129,12128,9649,4589,0,0,0,0,0,0,0,0,0,0,0
1123,129,12381,9939,4777,0,0,0,0,0,0,0,0,0,0,0
1124,129,12146,10233,5131,0,0,0,0,0,0,0,0,0,0,0
1125,129,11594,10411,3959,0,0,0,0,0,0,0,0,0,0,0
1126,129,11662,10538,4207,0,0,0,0,0,0,0,0,0,0,0
1127,129,11538,10717,4097,0,0,0,0,0,0,0,0,0,0,0
1128,129,11678,11156,3848,0,0,0,0,0,0,0,0,0,0,0
1129,129,11709,11081,4003,0,0,0,0,0,0,0,0,0,0,0
1130,129,11205,11328,3228,0,0,0,0,0,0,0,0,0,0,0
1131,129,11299,11143,3092,0,0,0,0,0,0,0,0,0,0,0
1132,129,11309,11588,2831,0,0,0,0,0,0,0,0,0,0,0
1133,129,11495,11844,2900,0,0,0,0,0,0,0,0,0,0,0
1134,129,11039,11896,2819,0,0,0,0,0,0,0,0,0,0,0
1135,129,10283,11775,2180,0,0,0,0,0,0,0,0,0,0,0
1136,129,10250,11862,2053,0,0,0,0,0,0,0,0,0,0,0
1137,129,10680,12529,2271,0,0,0,0,0,0,0,0,0,0,0
1138,129,10695,12545,2301,0,0,0,0,0,0,0,0,0,0,0
1139,129,10029,13130,2253,0,0,0,0,0,0,0,0,0,0,0
1140,129,9669,12677,1589,0,0,0,0,0,0,0,0,0,0,0
1141,129,9550,12754,1210,0,0,0,0,0,0,0,0,0,0,0
1142,129,9521,13118,1527,0,0,0,0,0,0,0,0,0,0,0
1143,129,9191,13854,1467,0,0,0,0,0,0,0,0,0,0,0
1144,129,9226,13474,572,0,0,0,0,0,0,0,0,0,0,0
1145,129,9769,12967,-360,0,0,0,0,0,0,0,0,0,0,0
1146,129,9888,13508,671,0,0,0,0,0,0,0,0,0,0,0
1147,129,9242,13929,639,0,0,0,0,0,0,0,0,0,0,0
1148,129,8268,14455,598,0,0,0,0,0,0,0,0,0,0,0
1149,129,7920,15064,81,0,0,0,0,0,0,0,0,0,0,0
1150,129,6935,15143,572,0,0,0,0,0,0,0,0,0,0,0
1151,129,8299,15538,516,0,0,0,0,0,0,0,0,0,0,0
1152,129,7918,15556,541,0,0,0,0,0,0,0,0,0,0,0
1153,129,7473,15137,70,0,0,0,0,0,0,0,0,0,0,0
1154,129,7302,14748,-279,0,0,0,0,0,0,0,0,0,0,0
1155,129,7379,15661,-383,0,0,0,0,0,0,0,0,0,0,0
1156,129,6922,15580,-62,0,0,0,0,0,0,0,0,0,0,0
1157,129,6644,15042,-259,0,0,0,0,0,0,0,0,0,0,0
1158,129,7581,15267,-1185,0,0,0,0,0,0,0,0,0,0,0
1159,129,6991,14989,-702,0,0,0,0,0,0,0,0,0,0,0
1160,129,6069,16062,-263,0,0,0,0,0,0,0,0,0,0,0
1161,129,6229,16349,-31,0,0,0,0,0,0,0,0,0,0,0
1162,129,6048,15897,49,0,0,0,0,0,0,0,0,0,0,0
1163,129,5926,15757,-530,0,0,0,0,0,0,0,0,0,0,0
1164,129,5662,16292,36,0,0,0,0,0,0,0,0,0,0,0
1165,129,5162,16630,491,0,0,0,0,0,0,0,0,0,0,0
1166,129,4289,16712,17,0,0,0,0,0,0,0,0,0,0,0
1167,129,3894,16368,-496,0,0,0,0,0,0,0,0,0,0,0
1168,129,4171,16112,-129,0,0,0,0,0,0,0,0,0,0,0
1169,129,3811,16035,228,0,0,0,0,0,0,0,0,0,0,0
1170,129,3482,16518,129,0,0,0,0,0,0,0,0,0,0,0
1171,129,3323,16096,41,0,0,0,0,0,0,0,0,0,0,0
1172,129,3720,15898,72,0,0,0,0,0,0,0,0,0,0,0
1173,129,4028,16001,-188,0,0,0,0,0,0,0,0,0,0,0
1174,129,4092,16478,214,0,0,0,0,0,0,0,0,0,0,0
1175,129,3953,16531,257,0,0,0,0,0,0,0,0,0,0,0
1176,129,3412,16475,279,0,0,0,0,0,0,0,0,0,0,0
1177,129,2924,16112,36,0,0,0,0,0,0,0,0,0,0,0
1178,129,2735,15921,137,0,0,0,0,0,0,0,0,0,0,0
1179,129,3221,16359,116,0,0,0,0,0,0,0,0,0,0,0
1180,129,3047,16745,335,0,0,0,0,0,0,0,0,0,0,0
1181,129,3035,17031,344,0,0,0,0,0,0,0,0,0,0,0
1182,129,3338,17068,500,0,0,0,0,0,0,0,0,0,0,0
1183,129,3115,16949,902,0,0,0,0,0,0,0,0,0,0,0
1184,129,2611,16541,973,0,0,0,0,0,0,0,0,0,0,0
1185,129,2172,16374,-310,0,0,0,0,0,0,0,0,0,0,0
1186,129,2264,16172,-237,0,0,0,0,0,0,0,0,0,0,0
1187,129,2163,16433,487,0,0,0,0,0,0,0,0,0,0,0
1188,129,2303,17044,337,0,0,0,0,0,0,0,0,0,0,0
1189,129,2272,16892,493,0,0,0,0,0,0,0,0,0,0,0
1190,129,2130,16553,671,0,0,0,0,0,0,0,0,0,0,0
1191,129,2121,16874,656,0,0,0,0,0,0,0,0,0,0,0
1192,129,1999,16738,498,0,0,0,0,0,0,0,0,0,0,0
1193,129,1702,16650,651,0,0,0,0,0,0,0,0,0,0,0
1194,129,1510,16482,467,0,0,0,0,0,0,0,0,0,0,0
1195,129,1418,16528,644,0,0,0,0,0,0,0,0,0,0,0
1196,129,1068,16262,477,0,0,0,0,0,0,0,0,0,0,0
1197,129,1279,16433,376,0,0,0,0,0,0,0,0,0,0,0
1198,129,1216,16350,598,0,0,0,0,0,0,0,0,0,0,0
1199,129,1404,16305,554,0,0,0,0,0,0,0,0,0,0,0
1200,129,1129,16378,563,0,0,0,0,0,0,0,0,0,0,0
1201,129,1200,16239,962,0,0,0,0,0,0,0,0,0,0,0
1202,129,1164,16516,699,0,0,0,0,0,0,0,0,0,0,0
1203,129,1194,16626,868,0,0,0,0,0,0,0,0,0,0,0
1204,129,1347,16927,855,0,0,0,0,0,0,0,0,0,0,0
1205,129,1600,16673,1405,0,0,0,0,0,0,0,0,0,0,0
1206,129,1397,16109,1245,0,0,0,0,0,0,0,0,0,0,0
1207,129,686,16504,756,0,0,0,0,0,0,0,0,0,0,0
1208,129,492,16910,782,0,0,0,0,0,0,0,0,0,0,0
1209,129,1279,16820,1211,0,0,0,0,0,0,0,0,0,0,0
1210,129,378,16663,1589,0,0,0,0,0,0,0,0,0,0,0
1211,129,347,16485,1373,0,0,0,0,0,0,0,0,0,0,0
1212,129,48,16669,1031,0,0,0,0,0,0,0,0,0,0,0
1213,129,8,16559,866,0,0,0,0,0,0,0,0,0,0,0
1214,129,400,16418,862,0,0,0,0,0,0,0,0,0,0,0
1215,129,710,16481,1432,0,0,0,0,0,0,0,0,0,0,0
1216,129,875,16577,1425,0,0,0,0,0,0,0,0,0,0,0
1217,129,704,16632,1133,0,0,0,0,0,0,0,0,0,0,0
1218,129,620,16298,979,0,0,0,0,0,0,0,0,0,0,0
1219,129,427,16145,1031,0,0,0,0,0,0,0,0,0,0,0
1220,129,403,16204,999,0,0,0,0,0,0,0,0,0,0,0
1221,129,493,16299,1049,0,0,0,0,0,0,0,0,0,0,0
1222,129,503,16290,736,0,0,0,0,0,0,0,0,0,0,0
1223,129,435,16316,1149,0,0,0,0,0,0,0,0,0,0,0
1224,129,128,16411,1200,0,0,0,0,0,0,0,0,0,0,0
1225,129,296,17195,1038,0,0,0,0,0,0,0,0,0,0,0
1226,129,125,16737,993,0,0,0,0,0,0,0,0,0,0,0
1227,129,324,16523,944,0,0,0,0,0,0,0,0,0,0,0
1228,129,343,16456,1097,0,0,0,0,0,0,0,0,0,0,0
1229,129,228,16428,1321,0,0,0,0,0,0,0,0,0,0,0
1230,129,114,16305,1033,0,0,0,0,0,0,0,0,0,0,0
1231,129,235,16328,1000,0,0,0,0,0,0,0,0,0,0,0
1232,129,423,16393,858,0,0,0,0,0,0,0,0,0,0,0
1233,129,678,16620,875,0,0,0,0,0,0,0,0,0,0,0
1234,129,547,16877,1138,0,0,0,0,0,0,0,0,0,0,0
1235,129,517,17028,857,0,0,0,0,0,0,0,0,0,0,0
1236,129,374,16962,511,0,0,0,0,0,0,0,0,0,0,0
1237,129,529,16332,928,0,0,0,0,0,0,0,0,0,0,0
1238,129,479,17140,1008,0,0,0,0,0,0,0,0,0,0,0
1239,129,189,16902,560,0,0,0,0,0,0,0,0,0,0,0
1240,129,-69,17048,840,0,0,0,0,0,0,0,0,0,0,0
1241,129,586,16400,586,0,0,0,0,0,0,0,0,0,0,0
1242,129,872,16742,853,0,0,0,0,0,0,0,0,0,0,0
1243,129,1079,17085,530,0,0,0,0,0,0,0,0,0,0,0
1244,129,907,16493,655,0,0,0,0,0,0,0,0,0,0,0
1245,129,805,16317,-180,0,0,0,0,0,0,0,0,0,0,0
1246,129,1041,15762,711,0,0,0,0,0,0,0,0,0,0,0
1247,129,1180,16319,972,0,0,0,0,0,0,0,0,0,0,0
1248,129,984,16448,1389,0,0,0,0,0,0,0,0,0,0,0
1249,129,367,16166,781,0,0,0,0,0,0,0,0,0,0,0
1250,129,900,16434,379,0,0,0,0,0,0,0,0,0,0,0
1251,129,-3360,14348,782,0,0,0,0,0,0,0,0,0,0,0
1252,129,472,17727,169,0,0,0,0,0,0,0,0,0,0,0
1253,129,1017,15928,1154,0,0,0,0,0,0,0,0,0,0,0
1254,129,1833,15814,1647,0,0,0,0,0,0,0,0,0,0,0
1255,129,1909,16604,1884,0,0,0,0,0,0,0,0,0,0,0
1256,129,380,17000,-3888,0,0,0,0,0,0,0,0,0,0,0
1257,129,1101,16521,1811,0,0,0,0,0,0,0,0,0,0,0
1258,129,2028,17052,2641,0,0,0,0,0,0,0,0,0,0,0
1259,129,2626,16458,1282,0,0,0,0,0,0,0,0,0,0,0
1260,129,933,15756,1349,0,0,0,0,0,0,0,0,0,0,0
1261,129,3236,16524,1348,0,0,0,0,0,0,0,0,0,0,0
1262,129,4437,15642,-456,0,0,0,0,0,0,0,0,0,0,0
1263,129,1501,16182,1307,0,0,0,0,0,0,0,0,0,0,0
1264,129,1783,16100,2057,0,0,0,0,0,0,0,0,0,0,0
1265,129,2778,15068,-655,0,0,0,0,0,0,0,0,0,0,0
1266,129,1177,17747,-1297,0,0,0,0,0,0,0,0,0,0,0
1267,129,2234,16588,643,0,0,0,0,0,0,0,0,0,0,0
1268,129,3030,16184,1512,0,0,0,0,0,0,0,0,0,0,0
1269,129,2792,16422,1282,0,0,0,0,0,0,0,0,0,0,0
1270,129,2801,16154,1467,0,0,0,0,0,0,0,0,0,0,0
1271,129,2617,16055,337,0,0,0,0,0,0,0,0,0,0,0
1272,129,4184,15109,2265,0,0,0,0,0,0,0,0,0,0,0
1273,129,4090,15679,2190,0,0,0,0,0,0,0,0,0,0,0
1274,129,2391,16450,1872,0,0,0,0,0,0,0,0,0,0,0
1275,129,3379,16085,940,0,0,0,0,0,0,0,0,0,0,0
1276,129,3884,16382,1571,0,0,0,0,0,0,0,0,0,0,0
1277,129,3847,15724,2664,0,0,0,0,0,0,0,0,0,0,0
1278,129,3156,16046,2311,0,0,0,0,0,0,0,0,0,0,0
1279,129,6234,14780,1960,0,0,0,0,0,0,0,0,0,0,0
1280,129,4032,15583,1587,0,0,0,0,0,0,0,0,0,0,0
1281,129,4071,15869,2707,0,0,0,0,0,0,0,0,0,0,0
1282,129,3734,16130,2843,0,0,0,0,0,0,0,0,0,0,0
1283,129,3423,15870,2740,0,0,0,0,0,0,0,0,0,0,0
1284,129,4403,14933,3027,0,0,0,0,0,0,0,0,0,0,0
1285,129,3966,15053,2140,0,0,0,0,0,0,0,0,0,0,0
1286,129,3738,15251,1529,0,0,0,0,0,0,0,0,0,0,0
1287,129,3590,15737,1425,0,0,0,0,0,0,0,0,0,0,0
1288,129,4301,15977,1664,0,0,0,0,0,0,0,0,0,0,0
1289,129,3898,16272,3658,0,0,0,0,0,0,0,0,0,0,0
1290,129,4860,15422,5986,0,0,0,0,0,0,0,0,0,0,0
1291,129,-877,21051,10586,0,0,0,0,0,0,0,0,0,0,0
1292,129,5801,17184,1506,0,0,0,0,0,0,0,0,0,0,0
1293,129,4719,14296,198,0,0,0,0,0,0,0,0,0,0,0
1294,129,3995,14976,3280,0,0,0,0,0,0,0,0,0,0,0
1295,129,4221,15741,3988,0,0,0,0,0,0,0,0,0,0,0
1296,129,3651,15960,5321,0,0,0,0,0,0,0,0,0,0,0
1297,129,3552,16318,6682,0,0,0,0,0,0,0,0,0,0,0
1298,129,3654,15504,6847,0,0,0,0,0,0,0,0,0,0,0
1299,129,3089,14974,4922,0,0,0,0,0,0,0,0,0,0,0
1300,129,3614,15691,4519,0,0,0,0,0,0,0,0,0,0,0
1301,129,3978,16375,4575,0,0,0,0,0,0,0,0,0,0,0
1302,129,2923,15934,5466,0,0,0,0,0,0,0,0,0,0,0
1303,129,1354,15246,6509,0,0,0,0,0,0,0,0,0,0,0
1304,129,1309,14812,4596,0,0,0,0,0,0,0,0,0,0,0
1305,129,2205,13942,3524,0,0,0,0,0,0,0,0,0,0,0
1306,129,2784,14866,2862,0,0,0,0,0,0,0,0,0,0,0
1307,129,746,15466,1382,0,0,0,0,0,0,0,0,0,0,0
1308,129,2870,16050,3235,0,0,0,0,0,0,0,0,0,0,0
1309,129,2530,14703,2843,0,0,0,0,0,0,0,0,0,0,0
1310,129,3620,15459,933,0,0,0,0,0,0,0,0,0,0,0
1311,129,-2142,16172,10691,0,0,0,0,0,0,0,0,0,0,0
1312,129,1825,13108,9560,0,0,0,0,0,0,0,0,0,0,0
1313,129,6636,20075,358,0,0,0,0,0,0,0,0,0,0,0
1314,129,2562,13402,3151,0,0,0,0,0,0,0,0,0,0,0
1315,129,-8388,16826,4751,0,0,0,0,0,0,0,0,0,0,0
1316,129,9054,10918,590,0,0,0,0,0,0,0,0,0,0,0
1317,129,-3567,19850,15252,0,0,0,0,0,0,0,0,0,0,0
1318,129,2037,14272,2283,0,0,0,0,0,0,0,0,0,0,0
1319,129,-2372,16252,3222,0,0,0,0,0,0,0,0,0,0,0
1320,129,6489,17669,3917,0,0,0,0,0,0,0,0,0,0,0
1321,129,-421,12084,5038,0,0,0,0,0,0,0,0,0,0,0
1322,129,1234,16298,6684,0,0,0,0,0,0,0,0,0,0,0
1323,129,3397,17238,13820,0,0,0,0,0,0,0,0,0,0,0
1324,129,-664,14532,3679,0,0,0,0,0,0,0,0,0,0,0
1325,129,1071,12733,6961,0,0,0,0,0,0,0,0,0,0,0
1326,129,145,13994,8728,0,0,0,0,0,0,0,0,0,0,0
1327,129,64,14650,8087,0,0,0,0,0,0,0,0,0,0,0
1328,129,951,14280,8586,0,0,0,0,0,0,0,0,0,0,0
1329,129,1047,14235,8209,0,0,0,0,0,0,0,0,0,0,0
1330,129,1454,14078,7931,0,0,0,0,0,0,0,0,0,0,0
1331,129,1489,13781,7311,0,0,0,0,0,0,0,0,0,0,0
1332,129,1563,14244,7171,0,0,0,0,0,0,0,0,0,0,0
1333,129,2013,13961,7208,0,0,0,0,0,0,0,0,0,0,0
1334,129,2424,13642,7070,0,0,0,0,0,0,0,0,0,0,0
1335,129,2451,13928,7163,0,0,0,0,0,0,0,0,0,0,0
1336,129,2709,13783,7329,0,0,0,0,0,0,0,0,0,0,0
1337,129,2685,13700,7237,0,0,0,0,0,0,0,0,0,0,0
1338,129,2630,13641,6875,0,0,0,0,0,0,0,0,0,0,0
1339,129,2281,13953,6498,0,0,0,0,0,0,0,0,0,0,0
1340,129,1515,14315,6959,0,0,0,0,0,0,0,0,0,0,0
1341,129,886,14520,7329,0,0,0,0,0,0,0,0,0,0,0
1342,129,884,14575,7505,0,0,0,0,0,0,0,0,0,0,0
1343,129,376,14728,7510,0,0,0,0,0,0,0,0,0,0,0
1344,129,-23,15090,7625,0,0,0,0,0,0,0,0,0,0,0
1345,129,-449,14998,7473,0,0,0,0,0,0,0,0,0,0,0
1346,129,-518,14766,7665,0,0,0,0,0,0,0,0,0,0,0
1347,129,-325,14769,7604,0,0,0,0,0,0,0,0,0,0,0
1348,129,-177,14589,7406,0,0,0,0,0,0,0,0,0,0,0
1349,129,21,14251,6913,0,0,0,0,0,0,0,0,0,0,0
1350,129,163,14222,6589,0,0,0,0,0,0,0,0,0,0,0
1351,129,514,14452,6710,0,0,0,0,0,0,0,0,0,0,0
1352,129,734,14260,6373,0,0,0,0,0,0,0,0,0,0,0
1353,129,541,14472,6621,0,0,0,0,0,0,0,0,0,0,0
1354,129,212,14886,6353,0,0,0,0,0,0,0,0,0,0,0
1355,129,-259,14949,6086,0,0,0,0,0,0,0,0,0,0,0
1356,129,-633,15274,6286,0,0,0,0,0,0,0,0,0,0,0
1357,129,-795,15476,6734,0,0,0,0,0,0,0,0,0,0,0
1358,129,-992,15354,6786,0,0,0,0,0,0,0,0,0,0,0
1359,129,-1373,15209,6494,0,0,0,0,0,0,0,0,0,0,0
1360,129,-1231,15129,6095,0,0,0,0,0,0,0,0,0,0,0
1361,129,-261,15008,6250,0,0,0,0,0,0,0,0,0,0,0
1362,129,1104,14515,6546,0,0,0,0,0,0,0,0,0,0,0
1363,129,1726,15262,5965,0,0,0,0,0,0,0,0,0,0,0
1364,129,1947,14736,7137,0,0,0,0,0,0,0,0,0,0,0
1365,129,2259,15079,6613,0,0,0,0,0,0,0,0,0,0,0
1366,129,1958,15291,6653,0,0,0,0,0,0,0,0,0,0,0
1367,129,988,15739,6634,0,0,0,0,0,0,0,0,0,0,0
1368,129,393,15937,6930,0,0,0,0,0,0,0,0,0,0,0
1369,129,597,15273,7217,0,0,0,0,0,0,0,0,0,0,0
1370,129,1203,14610,7106,0,0,0,0,0,0,0,0,0,0,0
1371,129,1296,14132,6869,0,0,0,0,0,0,0,0,0,0,0
1372,129,1556,13563,6958,0,0,0,0,0,0,0,0,0,0,0
1373,129,1792,13503,6607,0,0,0,0,0,0,0,0,0,0,0
1374,129,1630,13687,6393,0,0,0,0,0,0,0,0,0,0,0
1375,129,1216,13848,6042,0,0,0,0,0,0,0,0,0,0,0
1376,129,635,14426,5447,0,0,0,0,0,0,0,0,0,0,0
1377,129,301,15219,5445,0,0,0,0,0,0,0,0,0,0,0
1378,129,74,16209,5666,0,0,0,0,0,0,0,0,0,0,0
1379,129,387,16893,6066,0,0,0,0,0,0,0,0,0,0,0
1380,129,1214,17011,5906,0,0,0,0,0,0,0,0,0,0,0
1381,129,2226,16262,5872,0,0,0,0,0,0,0,0,0,0,0
1382,129,3092,15759,5480,0,0,0,0,0,0,0,0,0,0,0
1383,129,3317,14895,5256,0,0,0,0,0,0,0,0,0,0,0
1384,129,2372,14891,4908,0,0,0,0,0,0,0,0,0,0,0
1385,129,1418,14314,4808,0,0,0,0,0,0,0,0,0,0,0
1386,129,713,13501,4543,0,0,0,0,0,0,0,0,0,0,0
1387,129,22,13669,4225,0,0,0,0,0,0,0,0,0,0,0
1388,129,-809,14604,4655,0,0,0,0,0,0,0,0,0,0,0
1389,129,-1343,15098,5167,0,0,0,0,0,0,0,0,0,0,0
1390,129,-1223,15817,5549,0,0,0,0,0,0,0,0,0,0,0
1391,129,-1066,15915,5794,0,0,0,0,0,0,0,0,0,0,0
1392,129,-945,15466,5583,0,0,0,0,0,0,0,0,0,0,0
1393,129,-368,14617,5522,0,0,0,0,0,0,0,0,0,0,0
1394,129,-799,14311,5182,0,0,0,0,0,0,0,0,0,0,0
1395,129,-1501,14573,5503,0,0,0,0,0,0,0,0,0,0,0
1396,129,-2077,14848,5732,0,0,0,0,0,0,0,0,0,0,0
1397,129,-2023,15214,6054,0,0,0,0,0,0,0,0,0,0,0
1398,129,-1789,15442,6209,0,0,0,0,0,0,0,0,0,0,0
1399,129,-1452,15404,6099,0,0,0,0,0,0,0,0,0,0,0
1400,129,-1032,15386,5979,0,0,0,0,0,0,0,0,0,0,0
1401,129,-706,15308,5828,0,0,0,0,0,0,0,0,0,0,0
1402,129,-633,15242,5773,0,0,0,0,0,0,0,0,0,0,0
1403,129,-795,15201,5798,0,0,0,0,0,0,0,0,0,0,0
1404,129,-781,15036,5651,0,0,0,0,0,0,0,0,0,0,0
1405,129,-594,15103,5580,0,0,0,0,0,0,0,0,0,0,0
1406,129,-558,15232,5807,0,0,0,0,0,0,0,0,0,0,0
1407,129,-369,15079,5970,0,0,0,0,0,0,0,0,0,0,0
1408,129,-601,15122,5842,0,0,0,0,0,0,0,0,0,0,0
1409,129,-758,15189,5583,0,0,0,0,0,0,0,0,0,0,0
1410,129,-757,15419,5833,0,0,0,0,0,0,0,0,0,0,0
1411,129,-513,15408,6040,0,0,0,0,0,0,0,0,0,0,0
1412,129,-537,15334,6076,0,0,0,0,0,0,0,0,0,0,0
1413,129,-409,15319,6072,0,0,0,0,0,0,0,0,0,0,0
1414,129,-432,15289,5896,0,0,0,0,0,0,0,0,0,0,0
1415,129,-496,15229,5878,0,0,0,0,0,0,0,0,0,0,0
1416,129,-519,15202,5586,0,0,0,0,0,0,0,0,0,0,0
1417,129,-435,15240,5543,0,0,0,0,0,0,0,0,0,0,0
1418,129,-382,15179,5539,0,0,0,0,0,0,0,0,0,0,0
1419,129,-365,15140,5685,0,0,0,0,0,0,0,0,0,0,0
1420,129,-318,15070,5575,0,0,0,0,0,0,0,0,0,0,0
1421,129,-367,15021,5508,0,0,0,0,0,0,0,0,0,0,0
1422,129,-228,15179,5561,0,0,0,0,0,0,0,0,0,0,0
1423,129,-230,15233,5518,0,0,0,0,0,0,0,0,0,0,0
1424,129,-171,15175,5670,0,0,0,0,0,0,0,0,0,0,0
1425,129,-239,15130,5485,0,0,0,0,0,0,0,0,0,0,0
1426,129,-270,15417,5661,0,0,0,0,0,0,0,0,0,0,0
1427,129,-347,15644,5719,0,0,0,0,0,0,0,0,0,0,0
1428,129,-248,15578,5661,0,0,0,0,0,0,0,0,0,0,0
1429,129,-282,15465,5574,0,0,0,0,0,0,0,0,0,0,0
1430,129,-245,15397,5432,0,0,0,0,0,0,0,0,0,0,0
1431,129,-384,15204,5286,0,0,0,0,0,0,0,0,0,0,0
1432,129,-303,15259,5419,0,0,0,0,0,0,0,0,0,0,0
1433,129,-133,15238,5609,0,0,0,0,0,0,0,0,0,0,0
1434,129,-32,15009,5486,0,0,0,0,0,0,0,0,0,0,0
1435,129,-87,14950,5121,0,0,0,0,0,0,0,0,0,0,0
1436,129,-178,15103,5234,0,0,0,0,0,0,0,0,0,0,0
1437,129,-202,15255,5317,0,0,0,0,0,0,0,0,0,0,0
1438,129,-121,15459,5648,0,0,0,0,0,0,0,0,0,0,0
1439,129,-51,15516,5907,0,0,0,0,0,0,0,0,0,0,0
1440,129,-59,15360,5655,0,0,0,0,0,0,0,0,0,0,0
1441,129,72,15175,5563,0,0,0,0,0,0,0,0,0,0,0
1442,129,0,15306,5588,0,0,0,0,0,0,0,0,0,0,0
1443,129,-116,15315,5800,0,0,0,0,0,0,0,0,0,0,0
1444,129,-228,15257,5536,0,0,0,0,0,0,0,0,0,0,0
1445,129,54,15077,5376,0,0,0,0,0,0,0,0,0,0,0
1446,129,89,15157,5599,0,0,0,0,0,0,0,0,0,0,0
1447,129,101,15301,5781,0,0,0,0,0,0,0,0,0,0,0
1448,129,-186,15287,5657,0,0,0,0,0,0,0,0,0,0,0
1449,129,-155,15265,5531,0,0,0,0,0,0,0,0,0,0,0
1450,129,-79,15450,5608,0,0,0,0,0,0,0,0,0,0,0
1451,129,-53,15442,5896,0,0,0,0,0,0,0,0,0,0,0
1452,129,-50,15360,5456,0,0,0,0,0,0,0,0,0,0,0
1453,129,111,15287,5329,0,0,0,0,0,0,0,0,0,0,0
1454,129,19,15319,5404,0,0,0,0,0,0,0,0,0,0,0
1455,129,-80,15368,5785,0,0,0,0,0,0,0,0,0,0,0
1456,129,41,15288,5542,0,0,0,0,0,0,0,0,0,0,0
1457,129,-36,15210,5534,0,0,0,0,0,0,0,0,0,0,0
1458,129,-154,15206,5369,0,0,0,0,0,0,0,0,0,0,0
1459,129,32,15309,5664,0,0,0,0,0,0,0,0,0,0,0
1460,129,-122,15214,5495,0,0,0,0,0,0,0,0,0,0,0
1461,129,-117,15148,5614,0,0,0,0,0,0,0,0,0,0,0
1462,129,-129,15111,5406,0,0,0,0,0,0,0,0,0,0,0
1463,129,31,15038,5669,0,0,0,0,0,0,0,0,0,0,0
1464,129,-86,15187,5657,0,0,0,0,0,0,0,0,0,0,0
1465,129,67,15200,5753,0,0,0,0,0,0,0,0,0,0,0
1466,129,-32,15339,5617,0,0,0,0,0,0,0,0,0,0,0
1467,129,-220,15177,5494,0,0,0,0,0,0,0,0,0,0,0
1468,129,-211,15264,5728,0,0,0,0,0,0,0,0,0,0,0
