ProgrNum,PacketType,AccX,AccY,AccZ,GyrX,GyrY,GyrZ,MagX,MagY,MagZ,Q0,Q1,Q2,Q3,Vbat
0,129,-556,17997,3826,0,0,0,0,0,0,0,0,0,0,0
1,129,-4380,17141,13801,0,0,0,0,0,0,0,0,0,0,0
2,129,-3818,20831,5560,0,0,0,0,0,0,0,0,0,0,0
3,129,-1040,15778,2385,0,0,0,0,0,0,0,0,0,0,0
4,129,-2533,16627,2582,0,0,0,0,0,0,0,0,0,0,0
5,129,-702,16023,1157,0,0,0,0,0,0,0,0,0,0,0
6,129,-748,16492,712,0,0,0,0,0,0,0,0,0,0,0
7,129,744,16406,402,0,0,0,0,0,0,0,0,0,0,0
8,129,15,16377,1166,0,0,0,0,0,0,0,0,0,0,0
9,129,-185,16410,1086,0,0,0,0,0,0,0,0,0,0,0
10,129,511,16418,995,0,0,0,0,0,0,0,0,0,0,0
11,129,263,16571,1219,0,0,0,0,0,0,0,0,0,0,0
12,129,166,16521,1377,0,0,0,0,0,0,0,0,0,0,0
13,129,130,16936,957,0,0,0,0,0,0,0,0,0,0,0
14,129,145,16523,1151,0,0,0,0,0,0,0,0,0,0,0
15,129,-128,16930,1256,0,0,0,0,0,0,0,0,0,0,0
16,129,-1111,16815,2107,0,0,0,0,0,0,0,0,0,0,0
17,129,-107,17252,764,0,0,0,0,0,0,0,0,0,0,0
18,129,2415,6784,-4065,0,0,0,0,0,0,0,0,0,0,0
19,129,1394,20655,4204,0,0,0,0,0,0,0,0,0,0,0
20,129,456,16933,-334,0,0,0,0,0,0,0,0,0,0,0
21,129,1037,17228,-685,0,0,0,0,0,0,0,0,0,0,0
22,129,1619,17253,-390,0,0,0,0,0,0,0,0,0,0,0
23,129,1419,16313,488,0,0,0,0,0,0,0,0,0,0,0
24,129,1091,16517,1039,0,0,0,0,0,0,0,0,0,0,0
25,129,925,15701,681,0,0,0,0,0,0,0,0,0,0,0
26,129,211,16322,1022,0,0,0,0,0,0,0,0,0,0,0
27,129,390,15739,743,0,0,0,0,0,0,0,0,0,0,0
28,129,981,16994,-554,0,0,0,0,0,0,0,0,0,0,0
29,129,1625,15890,-368,0,0,0,0,0,0,0,0,0,0,0
30,129,1613,17522,1320,0,0,0,0,0,0,0,0,0,0,0
31,129,1725,17151,754,0,0,0,0,0,0,0,0,0,0,0
32,129,1061,17518,334,0,0,0,0,0,0,0,0,0,0,0
33,129,834,16424,1007,0,0,0,0,0,0,0,0,0,0,0
34,129,1247,16952,638,0,0,0,0,0,0,0,0,0,0,0
35,129,1716,16498,1153,0,0,0,0,0,0,0,0,0,0,0
36,129,1443,16674,1215,0,0,0,0,0,0,0,0,0,0,0
37,129,952,16619,215,0,0,0,0,0,0,0,0,0,0,0
38,129,944,16230,381,0,0,0,0,0,0,0,0,0,0,0
39,129,-151,17046,-233,0,0,0,0,0,0,0,0,0,0,0
40,129,1277,16748,-769,0,0,0,0,0,0,0,0,0,0,0
41,129,1563,16932,698,0,0,0,0,0,0,0,0,0,0,0
42,129,1254,17053,354,0,0,0,0,0,0,0,0,0,0,0
43,129,816,16719,-16,0,0,0,0,0,0,0,0,0,0,0
44,129,1253,16535,-282,0,0,0,0,0,0,0,0,0,0,0
45,129,1867,16665,184,0,0,0,0,0,0,0,0,0,0,0
46,129,1825,16378,406,0,0,0,0,0,0,0,0,0,0,0
47,129,1582,16427,307,0,0,0,0,0,0,0,0,0,0,0
48,129,1753,15815,-381,0,0,0,0,0,0,0,0,0,0,0
49,129,1718,16099,-269,0,0,0,0,0,0,0,0,0,0,0
50,129,1657,16467,-373,0,0,0,0,0,0,0,0,0,0,0
51,129,1966,16432,-546,0,0,0,0,0,0,0,0,0,0,0
52,129,1783,16425,-1010,0,0,0,0,0,0,0,0,0,0,0
53,129,1563,16889,-1699,0,0,0,0,0,0,0,0,0,0,0
54,129,2298,17465,-1520,0,0,0,0,0,0,0,0,0,0,0
55,129,2184,17373,-1142,0,0,0,0,0,0,0,0,0,0,0
56,129,2141,17426,-1528,0,0,0,0,0,0,0,0,0,0,0
57,129,1976,16416,-2565,0,0,0,0,0,0,0,0,0,0,0
58,129,1910,16553,-2755,0,0,0,0,0,0,0,0,0,0,0
59,129,2370,16376,-2799,0,0,0,0,0,0,0,0,0,0,0
60,129,1751,16256,-1579,0,0,0,0,0,0,0,0,0,0,0
61,129,1331,16148,-2832,0,0,0,0,0,0,0,0,0,0,0
62,129,1935,16750,-2742,0,0,0,0,0,0,0,0,0,0,0
63,129,2839,16994,-2806,0,0,0,0,0,0,0,0,0,0,0
64,129,2453,16523,-3054,0,0,0,0,0,0,0,0,0,0,0
65,129,2168,16360,-2899,0,0,0,0,0,0,0,0,0,0,0
66,129,1911,16205,-2932,0,0,0,0,0,0,0,0,0,0,0
67,129,1637,16238,-2883,0,0,0,0,0,0,0,0,0,0,0
68,129,1909,16139,-2863,0,0,0,0,0,0,0,0,0,0,0
69,129,2034,16145,-2665,0,0,0,0,0,0,0,0,0,0,0
70,129,1850,16162,-2640,0,0,0,0,0,0,0,0,0,0,0
71,129,1797,16190,-2746,0,0,0,0,0,0,0,0,0,0,0
72,129,1864,16293,-2700,0,0,0,0,0,0,0,0,0,0,0
73,129,2026,16117,-3023,0,0,0,0,0,0,0,0,0,0,0
74,129,2042,16418,-2702,0,0,0,0,0,0,0,0,0,0,0
75,129,2020,16213,-3004,0,0,0,0,0,0,0,0,0,0,0
76,129,1747,16532,-2821,0,0,0,0,0,0,0,0,0,0,0
77,129,2023,15966,-2987,0,0,0,0,0,0,0,0,0,0,0
78,129,1846,15990,-3015,0,0,0,0,0,0,0,0,0,0,0
79,129,1574,16000,-3138,0,0,0,0,0,0,0,0,0,0,0
80,129,1736,15928,-3293,0,0,0,0,0,0,0,0,0,0,0
81,129,1643,15852,-3494,0,0,0,0,0,0,0,0,0,0,0
82,129,1363,15800,-3728,0,0,0,0,0,0,0,0,0,0,0
83,129,1514,15793,-3800,0,0,0,0,0,0,0,0,0,0,0
84,129,1603,15777,-4055,0,0,0,0,0,0,0,0,0,0,0
85,129,1332,15833,-4264,0,0,0,0,0,0,0,0,0,0,0
86,129,1444,15796,-4341,0,0,0,0,0,0,0,0,0,0,0
87,129,1598,15680,-4667,0,0,0,0,0,0,0,0,0,0,0
88,129,1585,15585,-4848,0,0,0,0,0,0,0,0,0,0,0
89,129,1300,15596,-5106,0,0,0,0,0,0,0,0,0,0,0
90,129,1188,15585,-5213,0,0,0,0,0,0,0,0,0,0,0
91,129,1233,15691,-5659,0,0,0,0,0,0,0,0,0,0,0
92,129,1174,15820,-6044,0,0,0,0,0,0,0,0,0,0,0
93,129,1353,15726,-6268,0,0,0,0,0,0,0,0,0,0,0
94,129,1057,15795,-6553,0,0,0,0,0,0,0,0,0,0,0
95,129,914,15720,-6815,0,0,0,0,0,0,0,0,0,0,0
96,129,406,15421,-6999,0,0,0,0,0,0,0,0,0,0,0
97,129,817,15014,-7607,0,0,0,0,0,0,0,0,0,0,0
98,129,716,15072,-7612,0,0,0,0,0,0,0,0,0,0,0
99,129,614,15040,-8290,0,0,0,0,0,0,0,0,0,0,0
100,129,439,15296,-8534,0,0,0,0,0,0,0,0,0,0,0
101,129,463,15016,-8828,0,0,0,0,0,0,0,0,0,0,0
102,129,488,14846,-8973,0,0,0,0,0,0,0,0,0,0,0
103,129,328,14682,-9153,0,0,0,0,0,0,0,0,0,0,0
104,129,215,14537,-9527,0,0,0,0,0,0,0,0,0,0,0
105,129,49,14488,-9712,0,0,0,0,0,0,0,0,0,0,0
106,129,-100,14401,-9856,0,0,0,0,0,0,0,0,0,0,0
107,129,-120,14216,-10004,0,0,0,0,0,0,0,0,0,0,0
108,129,-93,13873,-10055,0,0,0,0,0,0,0,0,0,0,0
109,129,249,13763,-10236,0,0,0,0,0,0,0,0,0,0,0
110,129,129,13849,-9999,0,0,0,0,0,0,0,0,0,0,0
111,129,-358,13847,-10700,0,0,0,0,0,0,0,0,0,0,0
112,129,-561,14017,-11037,0,0,0,0,0,0,0,0,0,0,0
113,129,176,14161,-11162,0,0,0,0,0,0,0,0,0,0,0
114,129,88,14071,-11034,0,0,0,0,0,0,0,0,0,0,0
115,129,-191,13546,-11291,0,0,0,0,0,0,0,0,0,0,0
116,129,-135,13484,-11143,0,0,0,0,0,0,0,0,0,0,0
117,129,-25,13560,-11412,0,0,0,0,0,0,0,0,0,0,0
118,129,-94,13464,-11422,0,0,0,0,0,0,0,0,0,0,0
119,129,-203,13099,-12101,0,0,0,0,0,0,0,0,0,0,0
120,129,-167,13026,-11611,0,0,0,0,0,0,0,0,0,0,0
121,129,-21,12722,-11812,0,0,0,0,0,0,0,0,0,0,0
122,129,-283,12867,-11882,0,0,0,0,0,0,0,0,0,0,0
123,129,-328,12851,-12125,0,0,0,0,0,0,0,0,0,0,0
124,129,-322,12712,-11854,0,0,0,0,0,0,0,0,0,0,0
125,129,-311,12723,-12202,0,0,0,0,0,0,0,0,0,0,0
126,129,-452,12721,-12156,0,0,0,0,0,0,0,0,0,0,0
127,129,-523,12479,-12399,0,0,0,0,0,0,0,0,0,0,0
128,129,-348,12342,-12394,0,0,0,0,0,0,0,0,0,0,0
129,129,-354,12686,-12658,0,0,0,0,0,0,0,0,0,0,0
130,129,-351,12836,-12766,0,0,0,0,0,0,0,0,0,0,0
131,129,-358,12623,-12701,0,0,0,0,0,0,0,0,0,0,0
132,129,-200,12547,-12630,0,0,0,0,0,0,0,0,0,0,0
133,129,-149,12378,-13016,0,0,0,0,0,0,0,0,0,0,0
134,129,-140,12410,-12760,0,0,0,0,0,0,0,0,0,0,0
135,129,-369,12243,-12889,0,0,0,0,0,0,0,0,0,0,0
136,129,-599,12130,-13059,0,0,0,0,0,0,0,0,0,0,0
137,129,-512,12053,-13188,0,0,0,0,0,0,0,0,0,0,0
138,129,-418,12166,-13200,0,0,0,0,0,0,0,0,0,0,0
139,129,-311,12253,-13321,0,0,0,0,0,0,0,0,0,0,0
140,129,-550,12233,-13580,0,0,0,0,0,0,0,0,0,0,0
141,129,-521,12431,-13484,0,0,0,0,0,0,0,0,0,0,0
142,129,-241,12671,-13560,0,0,0,0,0,0,0,0,0,0,0
143,129,-8,12980,-13701,0,0,0,0,0,0,0,0,0,0,0
144,129,79,12554,-13715,0,0,0,0,0,0,0,0,0,0,0
145,129,-148,12489,-13495,0,0,0,0,0,0,0,0,0,0,0
146,129,-270,12229,-13521,0,0,0,0,0,0,0,0,0,0,0
147,129,-351,12341,-13543,0,0,0,0,0,0,0,0,0,0,0
148,129,-337,12561,-13248,0,0,0,0,0,0,0,0,0,0,0
149,129,-359,12694,-13068,0,0,0,0,0,0,0,0,0,0,0
150,129,-249,12875,-13124,0,0,0,0,0,0,0,0,0,0,0
151,129,-356,13003,-13032,0,0,0,0,0,0,0,0,0,0,0
152,129,-244,13167,-12999,0,0,0,0,0,0,0,0,0,0,0
153,129,-133,13617,-12154,0,0,0,0,0,0,0,0,0,0,0
154,129,-93,13328,-12394,0,0,0,0,0,0,0,0,0,0,0
155,129,-141,13556,-12131,0,0,0,0,0,0,0,0,0,0,0
156,129,-85,13687,-11919,0,0,0,0,0,0,0,0,0,0,0
157,129,61,13817,-11556,0,0,0,0,0,0,0,0,0,0,0
158,129,228,14059,-11300,0,0,0,0,0,0,0,0,0,0,0
159,129,284,14063,-11245,0,0,0,0,0,0,0,0,0,0,0
160,129,230,14404,-10813,0,0,0,0,0,0,0,0,0,0,0
161,129,182,14645,-10515,0,0,0,0,0,0,0,0,0,0,0
162,129,411,14432,-10035,0,0,0,0,0,0,0,0,0,0,0
163,129,682,14431,-9580,0,0,0,0,0,0,0,0,0,0,0
164,129,646,14580,-9114,0,0,0,0,0,0,0,0,0,0,0
165,129,351,14500,-8579,0,0,0,0,0,0,0,0,0,0,0
166,129,1033,15050,-8475,0,0,0,0,0,0,0,0,0,0,0
167,129,862,14861,-8013,0,0,0,0,0,0,0,0,0,0,0
168,129,1193,15218,-7744,0,0,0,0,0,0,0,0,0,0,0
169,129,1055,15337,-7185,0,0,0,0,0,0,0,0,0,0,0
170,129,1285,15441,-6692,0,0,0,0,0,0,0,0,0,0,0
171,129,1357,15299,-6490,0,0,0,0,0,0,0,0,0,0,0
172,129,1351,15661,-5949,0,0,0,0,0,0,0,0,0,0,0
173,129,1227,15996,-5660,0,0,0,0,0,0,0,0,0,0,0
174,129,1517,15953,-5187,0,0,0,0,0,0,0,0,0,0,0
175,129,1890,16015,-4614,0,0,0,0,0,0,0,0,0,0,0
176,129,2039,15569,-4054,0,0,0,0,0,0,0,0,0,0,0
177,129,1907,15532,-3502,0,0,0,0,0,0,0,0,0,0,0
178,129,1727,15514,-3159,0,0,0,0,0,0,0,0,0,0,0
179,129,1862,15845,-2737,0,0,0,0,0,0,0,0,0,0,0
180,129,2139,15935,-2057,0,0,0,0,0,0,0,0,0,0,0
181,129,2489,15945,-1779,0,0,0,0,0,0,0,0,0,0,0
182,129,2792,16055,-1242,0,0,0,0,0,0,0,0,0,0,0
183,129,2731,16079,-544,0,0,0,0,0,0,0,0,0,0,0
184,129,2828,15865,-385,0,0,0,0,0,0,0,0,0,0,0
185,129,2756,16042,-306,0,0,0,0,0,0,0,0,0,0,0
186,129,2770,15971,943,0,0,0,0,0,0,0,0,0,0,0
187,129,3007,15747,602,0,0,0,0,0,0,0,0,0,0,0
188,129,3003,15855,1031,0,0,0,0,0,0,0,0,0,0,0
189,129,2961,15945,1267,0,0,0,0,0,0,0,0,0,0,0
190,129,2863,15953,1971,0,0,0,0,0,0,0,0,0,0,0
191,129,2839,15833,2365,0,0,0,0,0,0,0,0,0,0,0
192,129,2976,15681,2491,0,0,0,0,0,0,0,0,0,0,0
193,129,2936,15438,2666,0,0,0,0,0,0,0,0,0,0,0
194,129,3043,15403,2901,0,0,0,0,0,0,0,0,0,0,0
195,129,3168,15204,3423,0,0,0,0,0,0,0,0,0,0,0
196,129,3276,15229,3974,0,0,0,0,0,0,0,0,0,0,0
197,129,3275,15202,4310,0,0,0,0,0,0,0,0,0,0,0
198,129,3332,15155,4957,0,0,0,0,0,0,0,0,0,0,0
199,129,3551,14988,5825,0,0,0,0,0,0,0,0,0,0,0
200,129,3836,14733,6480,0,0,0,0,0,0,0,0,0,0,0
201,129,4118,14124,6657,0,0,0,0,0,0,0,0,0,0,0
202,129,3734,13616,6980,0,0,0,0,0,0,0,0,0,0,0
203,129,3526,13173,7151,0,0,0,0,0,0,0,0,0,0,0
204,129,3166,13334,8470,0,0,0,0,0,0,0,0,0,0,0
205,129,3361,12438,9149,0,0,0,0,0,0,0,0,0,0,0
206,129,3245,11662,9613,0,0,0,0,0,0,0,0,0,0,0
207,129,3126,11203,9591,0,0,0,0,0,0,0,0,0,0,0
208,129,3092,11331,9687,0,0,0,0,0,0,0,0,0,0,0
209,129,3221,11762,9905,0,0,0,0,0,0,0,0,0,0,0
210,129,2903,11449,9440,0,0,0,0,0,0,0,0,0,0,0
211,129,2633,11528,10397,0,0,0,0,0,0,0,0,0,0,0
212,129,2732,11214,10475,0,0,0,0,0,0,0,0,0,0,0
213,129,3165,10892,10535,0,0,0,0,0,0,0,0,0,0,0
214,129,3184,10475,10569,0,0,0,0,0,0,0,0,0,0,0
215,129,2950,10326,11403,0,0,0,0,0,0,0,0,0,0,0
216,129,2665,9476,10652,0,0,0,0,0,0,0,0,0,0,0
217,129,2430,9102,11442,0,0,0,0,0,0,0,0,0,0,0
218,129,2616,8815,11957,0,0,0,0,0,0,0,0,0,0,0
219,129,2896,8888,12339,0,0,0,0,0,0,0,0,0,0,0
220,129,2981,9027,12227,0,0,0,0,0,0,0,0,0,0,0
221,129,2902,8947,11858,0,0,0,0,0,0,0,0,0,0,0
222,129,2927,9053,13246,0,0,0,0,0,0,0,0,0,0,0
223,129,3152,8375,12944,0,0,0,0,0,0,0,0,0,0,0
224,129,2870,7876,12999,0,0,0,0,0,0,0,0,0,0,0
225,129,2748,7629,13173,0,0,0,0,0,0,0,0,0,0,0
226,129,2950,7614,13145,0,0,0,0,0,0,0,0,0,0,0
227,129,3070,7628,12945,0,0,0,0,0,0,0,0,0,0,0
228,129,3223,7510,12508,0,0,0,0,0,0,0,0,0,0,0
229,129,3163,7726,13725,0,0,0,0,0,0,0,0,0,0,0
230,129,2977,7005,13393,0,0,0,0,0,0,0,0,0,0,0
231,129,2923,6324,14011,0,0,0,0,0,0,0,0,0,0,0
232,129,3077,5822,14027,0,0,0,0,0,0,0,0,0,0,0
233,129,3173,5757,14118,0,0,0,0,0,0,0,0,0,0,0
234,129,3152,5644,14280,0,0,0,0,0,0,0,0,0,0,0
235,129,3463,5861,14131,0,0,0,0,0,0,0,0,0,0,0
236,129,3511,5785,13903,0,0,0,0,0,0,0,0,0,0,0
237,129,3641,5620,14080,0,0,0,0,0,0,0,0,0,0,0
238,129,3040,5624,13979,0,0,0,0,0,0,0,0,0,0,0
239,129,3067,5055,14637,0,0,0,0,0,0,0,0,0,0,0
240,129,3298,3892,14314,0,0,0,0,0,0,0,0,0,0,0
241,129,3247,3240,14379,0,0,0,0,0,0,0,0,0,0,0
242,129,3358,3003,14176,0,0,0,0,0,0,0,0,0,0,0
243,129,3371,3673,14475,0,0,0,0,0,0,0,0,0,0,0
244,129,3549,4181,14250,0,0,0,0,0,0,0,0,0,0,0
245,129,3961,4282,14305,0,0,0,0,0,0,0,0,0,0,0
246,129,3869,4366,14300,0,0,0,0,0,0,0,0,0,0,0
247,129,3645,4081,14718,0,0,0,0,0,0,0,0,0,0,0
248,129,3374,3859,14702,0,0,0,0,0,0,0,0,0,0,0
249,129,3401,3790,14858,0,0,0,0,0,0,0,0,0,0,0
250,129,3042,3860,14562,0,0,0,0,0,0,0,0,0,0,0
251,129,3126,3716,14112,0,0,0,0,0,0,0,0,0,0,0
252,129,3230,3803,14628,0,0,0,0,0,0,0,0,0,0,0
253,129,3413,3952,14604,0,0,0,0,0,0,0,0,0,0,0
254,129,3286,3867,14899,0,0,0,0,0,0,0,0,0,0,0
255,129,3456,3558,14700,0,0,0,0,0,0,0,0,0,0,0
256,129,5098,2358,14193,0,0,0,0,0,0,0,0,0,0,0
257,129,3253,3359,14484,0,0,0,0,0,0,0,0,0,0,0
258,129,3272,2951,14212,0,0,0,0,0,0,0,0,0,0,0
259,129,3148,2878,14388,0,0,0,0,0,0,0,0,0,0,0
260,129,3219,2638,14528,0,0,0,0,0,0,0,0,0,0,0
261,129,3247,2490,14708,0,0,0,0,0,0,0,0,0,0,0
262,129,3301,2308,14809,0,0,0,0,0,0,0,0,0,0,0
263,129,3558,2446,15098,0,0,0,0,0,0,0,0,0,0,0
264,129,3488,2349,14942,0,0,0,0,0,0,0,0,0,0,0
265,129,3676,2379,15156,0,0,0,0,0,0,0,0,0,0,0
266,129,3370,2208,15155,0,0,0,0,0,0,0,0,0,0,0
267,129,4064,2010,14730,0,0,0,0,0,0,0,0,0,0,0
268,129,3379,2703,14722,0,0,0,0,0,0,0,0,0,0,0
269,129,3265,2704,14241,0,0,0,0,0,0,0,0,0,0,0
270,129,3189,2735,14045,0,0,0,0,0,0,0,0,0,0,0
271,129,3166,2673,14226,0,0,0,0,0,0,0,0,0,0,0
272,129,3276,2297,14969,0,0,0,0,0,0,0,0,0,0,0
273,129,3224,1708,14896,0,0,0,0,0,0,0,0,0,0,0
274,129,3382,1431,14911,0,0,0,0,0,0,0,0,0,0,0
275,129,3379,1442,14847,0,0,0,0,0,0,0,0,0,0,0
276,129,3538,1297,14576,0,0,0,0,0,0,0,0,0,0,0
277,129,3725,1283,14764,0,0,0,0,0,0,0,0,0,0,0
278,129,3663,996,14736,0,0,0,0,0,0,0,0,0,0,0
279,129,3744,766,15053,0,0,0,0,0,0,0,0,0,0,0
280,129,3583,509,14439,0,0,0,0,0,0,0,0,0,0,0
281,129,3148,800,14414,0,0,0,0,0,0,0,0,0,0,0
282,129,2735,1160,15164,0,0,0,0,0,0,0,0,0,0,0
283,129,2102,1167,15475,0,0,0,0,0,0,0,0,0,0,0
284,129,3642,839,14784,0,0,0,0,0,0,0,0,0,0,0
285,129,5460,1439,14798,0,0,0,0,0,0,0,0,0,0,0
286,129,4343,2138,14711,0,0,0,0,0,0,0,0,0,0,0
287,129,3265,2617,15169,0,0,0,0,0,0,0,0,0,0,0
288,129,3239,2691,15128,0,0,0,0,0,0,0,0,0,0,0
289,129,5169,3567,14810,0,0,0,0,0,0,0,0,0,0,0
290,129,3764,3754,14978,0,0,0,0,0,0,0,0,0,0,0
291,129,3428,3759,14418,0,0,0,0,0,0,0,0,0,0,0
292,129,3487,3623,14100,0,0,0,0,0,0,0,0,0,0,0
293,129,3688,3778,14000,0,0,0,0,0,0,0,0,0,0,0
294,129,3859,3984,13669,0,0,0,0,0,0,0,0,0,0,0
295,129,3966,4378,13512,0,0,0,0,0,0,0,0,0,0,0
296,129,4134,4942,14048,0,0,0,0,0,0,0,0,0,0,0
297,129,4082,5258,14118,0,0,0,0,0,0,0,0,0,0,0
298,129,4123,5369,13435,0,0,0,0,0,0,0,0,0,0,0
299,129,4171,5947,13451,0,0,0,0,0,0,0,0,0,0,0
300,129,3999,6318,13461,0,0,0,0,0,0,0,0,0,0,0
301,129,4300,6818,13618,0,0,0,0,0,0,0,0,0,0,0
302,129,4184,7007,13514,0,0,0,0,0,0,0,0,0,0,0
303,129,3466,7525,13053,0,0,0,0,0,0,0,0,0,0,0
304,129,3800,7758,12954,0,0,0,0,0,0,0,0,0,0,0
305,129,3870,8005,12881,0,0,0,0,0,0,0,0,0,0,0
306,129,4000,8050,12878,0,0,0,0,0,0,0,0,0,0,0
307,129,4033,8220,12061,0,0,0,0,0,0,0,0,0,0,0
308,129,3839,8457,12314,0,0,0,0,0,0,0,0,0,0,0
309,129,3154,8815,12375,0,0,0,0,0,0,0,0,0,0,0
310,129,4230,9187,11883,0,0,0,0,0,0,0,0,0,0,0
311,129,6493,9076,11068,0,0,0,0,0,0,0,0,0,0,0
312,129,4289,10349,11568,0,0,0,0,0,0,0,0,0,0,0
313,129,4195,10618,11041,0,0,0,0,0,0,0,0,0,0,0
314,129,4134,11035,10854,0,0,0,0,0,0,0,0,0,0,0
315,129,4233,11573,10587,0,0,0,0,0,0,0,0,0,0,0
316,129,4106,12073,9928,0,0,0,0,0,0,0,0,0,0,0
317,129,3948,12479,9035,0,0,0,0,0,0,0,0,0,0,0
318,129,3968,12714,8478,0,0,0,0,0,0,0,0,0,0,0
319,129,3611,13116,7775,0,0,0,0,0,0,0,0,0,0,0
320,129,3955,13504,7619,0,0,0,0,0,0,0,0,0,0,0
321,129,4156,13512,7500,0,0,0,0,0,0,0,0,0,0,0
322,129,3997,13438,6888,0,0,0,0,0,0,0,0,0,0,0
323,129,4067,13655,7123,0,0,0,0,0,0,0,0,0,0,0
324,129,4927,13218,6190,0,0,0,0,0,0,0,0,0,0,0
325,129,4062,13804,6303,0,0,0,0,0,0,0,0,0,0,0
326,129,4056,14038,5854,0,0,0,0,0,0,0,0,0,0,0
327,129,4351,14554,5486,0,0,0,0,0,0,0,0,0,0,0
328,129,3940,14674,5106,0,0,0,0,0,0,0,0,0,0,0
329,129,3707,14791,4781,0,0,0,0,0,0,0,0,0,0,0
330,129,3537,15255,4322,0,0,0,0,0,0,0,0,0,0,0
331,129,3831,15345,4282,0,0,0,0,0,0,0,0,0,0,0
332,129,3894,15225,3966,0,0,0,0,0,0,0,0,0,0,0
333,129,3880,16114,4059,0,0,0,0,0,0,0,0,0,0,0
334,129,3629,15848,3454,0,0,0,0,0,0,0,0,0,0,0
335,129,3398,15832,3391,0,0,0,0,0,0,0,0,0,0,0
336,129,3167,16051,2987,0,0,0,0,0,0,0,0,0,0,0
337,129,3061,16371,3262,0,0,0,0,0,0,0,0,0,0,0
338,129,2981,16508,3037,0,0,0,0,0,0,0,0,0,0,0
339,129,3203,16456,2594,0,0,0,0,0,0,0,0,0,0,0
340,129,2908,16417,2735,0,0,0,0,0,0,0,0,0,0,0
341,129,2898,16340,2691,0,0,0,0,0,0,0,0,0,0,0
342,129,2857,16360,2393,0,0,0,0,0,0,0,0,0,0,0
343,129,2693,16522,2190,0,0,0,0,0,0,0,0,0,0,0
344,129,2752,16623,2186,0,0,0,0,0,0,0,0,0,0,0
345,129,2858,16916,2308,0,0,0,0,0,0,0,0,0,0,0
346,129,2854,17055,2494,0,0,0,0,0,0,0,0,0,0,0
347,129,2904,16900,2654,0,0,0,0,0,0,0,0,0,0,0
348,129,3015,16423,2709,0,0,0,0,0,0,0,0,0,0,0
349,129,3261,15859,2582,0,0,0,0,0,0,0,0,0,0,0
350,129,3476,15279,2769,0,0,0,0,0,0,0,0,0,0,0
351,129,3636,14963,2928,0,0,0,0,0,0,0,0,0,0,0
352,129,3690,14732,2998,0,0,0,0,0,0,0,0,0,0,0
353,129,4030,14688,2958,0,0,0,0,0,0,0,0,0,0,0
354,129,4330,14676,2995,0,0,0,0,0,0,0,0,0,0,0
355,129,4654,14739,3050,0,0,0,0,0,0,0,0,0,0,0
356,129,5060,14447,3060,0,0,0,0,0,0,0,0,0,0,0
357,129,5306,14210,3019,0,0,0,0,0,0,0,0,0,0,0
358,129,5897,14026,3288,0,0,0,0,0,0,0,0,0,0,0
359,129,6454,13856,3509,0,0,0,0,0,0,0,0,0,0,0
360,129,6755,13480,3214,0,0,0,0,0,0,0,0,0,0,0
361,129,7074,12967,2883,0,0,0,0,0,0,0,0,0,0,0
362,129,7493,12858,3556,0,0,0,0,0,0,0,0,0,0,0
363,129,7863,12465,3291,0,0,0,0,0,0,0,0,0,0,0
364,129,8521,12185,3165,0,0,0,0,0,0,0,0,0,0,0
365,129,8982,11647,2746,0,0,0,0,0,0,0,0,0,0,0
366,129,9660,10965,2418,0,0,0,0,0,0,0,0,0,0,0
367,129,10310,10496,1762,0,0,0,0,0,0,0,0,0,0,0
368,129,11211,10195,981,0,0,0,0,0,0,0,0,0,0,0
369,129,11731,10149,550,0,0,0,0,0,0,0,0,0,0,0
370,129,12055,9842,-83,0,0,0,0,0,0,0,0,0,0,0
371,129,12359,9247,-295,0,0,0,0,0,0,0,0,0,0,0
372,129,13104,8957,-383,0,0,0,0,0,0,0,0,0,0,0
373,129,14119,8805,-699,0,0,0,0,0,0,0,0,0,0,0
374,129,15066,8418,-977,0,0,0,0,0,0,0,0,0,0,0
375,129,15547,7471,-1446,0,0,0,0,0,0,0,0,0,0,0
376,129,15923,6995,-1775,0,0,0,0,0,0,0,0,0,0,0
377,129,16155,6426,-2154,0,0,0,0,0,0,0,0,0,0,0
378,129,15911,6108,-2822,0,0,0,0,0,0,0,0,0,0,0
379,129,15574,5906,-3012,0,0,0,0,0,0,0,0,0,0,0
380,129,15170,6086,-3522,0,0,0,0,0,0,0,0,0,0,0
381,129,14940,6079,-3863,0,0,0,0,0,0,0,0,0,0,0
382,129,15185,6195,-3983,0,0,0,0,0,0,0,0,0,0,0
383,129,15583,6020,-4039,0,0,0,0,0,0,0,0,0,0,0
384,129,15892,6120,-4202,0,0,0,0,0,0,0,0,0,0,0
385,129,16300,5745,-4331,0,0,0,0,0,0,0,0,0,0,0
386,129,16762,5610,-4334,0,0,0,0,0,0,0,0,0,0,0
387,129,17186,5331,-4639,0,0,0,0,0,0,0,0,0,0,0
388,129,17231,5149,-4840,0,0,0,0,0,0,0,0,0,0,0
389,129,17198,4892,-5163,0,0,0,0,0,0,0,0,0,0,0
390,129,17120,4837,-5314,0,0,0,0,0,0,0,0,0,0,0
391,129,16707,4996,-5652,0,0,0,0,0,0,0,0,0,0,0
392,129,16474,4976,-5609,0,0,0,0,0,0,0,0,0,0,0
393,129,16031,5034,-5774,0,0,0,0,0,0,0,0,0,0,0
394,129,15178,5035,-5890,0,0,0,0,0,0,0,0,0,0,0
395,129,15177,5313,-6077,0,0,0,0,0,0,0,0,0,0,0
396,129,15592,4831,-5941,0,0,0,0,0,0,0,0,0,0,0
397,129,14955,6668,-6911,0,0,0,0,0,0,0,0,0,0,0
398,129,15786,5260,-6344,0,0,0,0,0,0,0,0,0,0,0
399,129,15942,5298,-6487,0,0,0,0,0,0,0,0,0,0,0
400,129,15465,5623,-6416,0,0,0,0,0,0,0,0,0,0,0
401,129,15538,5652,-6667,0,0,0,0,0,0,0,0,0,0,0
402,129,15695,5961,-6619,0,0,0,0,0,0,0,0,0,0,0
403,129,15573,6714,-6262,0,0,0,0,0,0,0,0,0,0,0
404,129,15076,7131,-6174,0,0,0,0,0,0,0,0,0,0,0
405,129,14914,7431,-6420,0,0,0,0,0,0,0,0,0,0,0
406,129,14673,7672,-5854,0,0,0,0,0,0,0,0,0,0,0
407,129,14680,8176,-5868,0,0,0,0,0,0,0,0,0,0,0
408,129,14333,8694,-5580,0,0,0,0,0,0,0,0,0,0,0
409,129,14104,9206,-5050,0,0,0,0,0,0,0,0,0,0,0
410,129,13725,8915,-5070,0,0,0,0,0,0,0,0,0,0,0
411,129,13617,8717,-5143,0,0,0,0,0,0,0,0,0,0,0
412,129,13132,9014,-4919,0,0,0,0,0,0,0,0,0,0,0
413,129,12658,9165,-4745,0,0,0,0,0,0,0,0,0,0,0
414,129,12475,9242,-4461,0,0,0,0,0,0,0,0,0,0,0
415,129,12494,9364,-4128,0,0,0,0,0,0,0,0,0,0,0
416,129,12097,9544,-3798,0,0,0,0,0,0,0,0,0,0,0
417,129,11707,10000,-3690,0,0,0,0,0,0,0,0,0,0,0
418,129,11621,10647,-3447,0,0,0,0,0,0,0,0,0,0,0
419,129,11403,11190,-3354,0,0,0,0,0,0,0,0,0,0,0
420,129,11363,11589,-3029,0,0,0,0,0,0,0,0,0,0,0
421,129,11332,11841,-2553,0,0,0,0,0,0,0,0,0,0,0
422,129,11537,12163,-1694,0,0,0,0,0,0,0,0,0,0,0
423,129,10286,12119,-1952,0,0,0,0,0,0,0,0,0,0,0
424,129,11387,10640,-2081,0,0,0,0,0,0,0,0,0,0,0
425,129,9649,12465,-1633,0,0,0,0,0,0,0,0,0,0,0
426,129,9592,12692,-1694,0,0,0,0,0,0,0,0,0,0,0
427,129,9284,13111,-1370,0,0,0,0,0,0,0,0,0,0,0
428,129,9111,13132,-1523,0,0,0,0,0,0,0,0,0,0,0
429,129,8760,13454,-1117,0,0,0,0,0,0,0,0,0,0,0
430,129,8800,13834,-1043,0,0,0,0,0,0,0,0,0,0,0
431,129,8474,14185,-1019,0,0,0,0,0,0,0,0,0,0,0
432,129,8116,14116,-895,0,0,0,0,0,0,0,0,0,0,0
433,129,7991,14450,-867,0,0,0,0,0,0,0,0,0,0,0
434,129,7954,14325,-759,0,0,0,0,0,0,0,0,0,0,0
435,129,7910,14501,-807,0,0,0,0,0,0,0,0,0,0,0
436,129,7471,14525,-793,0,0,0,0,0,0,0,0,0,0,0
437,129,7224,14639,-855,0,0,0,0,0,0,0,0,0,0,0
438,129,6893,14895,-521,0,0,0,0,0,0,0,0,0,0,0
439,129,6512,14677,-270,0,0,0,0,0,0,0,0,0,0,0
440,129,6240,14596,-168,0,0,0,0,0,0,0,0,0,0,0
441,129,5993,14511,-176,0,0,0,0,0,0,0,0,0,0,0
442,129,5477,14825,-124,0,0,0,0,0,0,0,0,0,0,0
443,129,5469,15277,-57,0,0,0,0,0,0,0,0,0,0,0
444,129,5231,15580,163,0,0,0,0,0,0,0,0,0,0,0
445,129,4964,15656,179,0,0,0,0,0,0,0,0,0,0,0
446,129,4581,15771,369,0,0,0,0,0,0,0,0,0,0,0
447,129,4146,15834,468,0,0,0,0,0,0,0,0,0,0,0
448,129,3933,15847,609,0,0,0,0,0,0,0,0,0,0,0
449,129,3681,16013,628,0,0,0,0,0,0,0,0,0,0,0
450,129,3365,16046,788,0,0,0,0,0,0,0,0,0,0,0
451,129,2823,16149,900,0,0,0,0,0,0,0,0,0,0,0
452,129,2462,16188,1031,0,0,0,0,0,0,0,0,0,0,0
453,129,2843,15739,846,0,0,0,0,0,0,0,0,0,0,0
454,129,1858,15963,1071,0,0,0,0,0,0,0,0,0,0,0
455,129,1513,15973,1079,0,0,0,0,0,0,0,0,0,0,0
456,129,3174,15429,941,0,0,0,0,0,0,0,0,0,0,0
457,129,892,16042,980,0,0,0,0,0,0,0,0,0,0,0
458,129,535,16117,936,0,0,0,0,0,0,0,0,0,0,0
459,129,-141,16230,1448,0,0,0,0,0,0,0,0,0,0,0
460,129,-579,16157,1276,0,0,0,0,0,0,0,0,0,0,0
461,129,981,15340,-60,0,0,0,0,0,0,0,0,0,0,0
462,129,-2064,16099,903,0,0,0,0,0,0,0,0,0,0,0
463,129,-2588,15983,945,0,0,0,0,0,0,0,0,0,0,0
464,129,-2941,15769,990,0,0,0,0,0,0,0,0,0,0,0
465,129,-3452,15504,741,0,0,0,0,0,0,0,0,0,0,0
466,129,-3911,15573,870,0,0,0,0,0,0,0,0,0,0,0
467,129,-4232,15659,945,0,0,0,0,0,0,0,0,0,0,0
468,129,-4123,15696,968,0,0,0,0,0,0,0,0,0,0,0
469,129,-4153,15820,961,0,0,0,0,0,0,0,0,0,0,0
470,129,-4437,15673,818,0,0,0,0,0,0,0,0,0,0,0
471,129,-5075,15448,726,0,0,0,0,0,0,0,0,0,0,0
472,129,-5804,15524,1059,0,0,0,0,0,0,0,0,0,0,0
473,129,-5720,15281,994,0,0,0,0,0,0,0,0,0,0,0
474,129,-5974,15309,1025,0,0,0,0,0,0,0,0,0,0,0
475,129,-6052,15343,1054,0,0,0,0,0,0,0,0,0,0,0
476,129,-6508,15139,1282,0,0,0,0,0,0,0,0,0,0,0
477,129,-7153,14806,970,0,0,0,0,0,0,0,0,0,0,0
478,129,-7392,14762,1047,0,0,0,0,0,0,0,0,0,0,0
479,129,-7723,14715,932,0,0,0,0,0,0,0,0,0,0,0
480,129,-8131,14799,714,0,0,0,0,0,0,0,0,0,0,0
481,129,-8497,14869,856,0,0,0,0,0,0,0,0,0,0,0
482,129,-8624,14873,767,0,0,0,0,0,0,0,0,0,0,0
483,129,-8844,14535,954,0,0,0,0,0,0,0,0,0,0,0
484,129,-9220,14282,873,0,0,0,0,0,0,0,0,0,0,0
485,129,-10050,14157,841,0,0,0,0,0,0,0,0,0,0,0
486,129,-9962,13512,470,0,0,0,0,0,0,0,0,0,0,0
487,129,-10339,13237,424,0,0,0,0,0,0,0,0,0,0,0
488,129,-10690,13187,257,0,0,0,0,0,0,0,0,0,0,0
489,129,-10935,13088,163,0,0,0,0,0,0,0,0,0,0,0
490,129,-11256,12737,467,0,0,0,0,0,0,0,0,0,0,0
491,129,-10911,12786,402,0,0,0,0,0,0,0,0,0,0,0
492,129,-11280,12799,392,0,0,0,0,0,0,0,0,0,0,0
493,129,-11850,12645,421,0,0,0,0,0,0,0,0,0,0,0
494,129,-11715,12463,682,0,0,0,0,0,0,0,0,0,0,0
495,129,-11684,12230,307,0,0,0,0,0,0,0,0,0,0,0
496,129,-11942,12502,340,0,0,0,0,0,0,0,0,0,0,0
497,129,-12050,12396,214,0,0,0,0,0,0,0,0,0,0,0
498,129,-12475,12212,71,0,0,0,0,0,0,0,0,0,0,0
499,129,-12541,12160,77,0,0,0,0,0,0,0,0,0,0,0
500,129,-12426,12048,337,0,0,0,0,0,0,0,0,0,0,0
501,129,-12574,11991,49,0,0,0,0,0,0,0,0,0,0,0
502,129,-13068,12178,41,0,0,0,0,0,0,0,0,0,0,0
503,129,-13354,12420,6,0,0,0,0,0,0,0,0,0,0,0
504,129,-13390,12318,-123,0,0,0,0,0,0,0,0,0,0,0
505,129,-13289,12181,-337,0,0,0,0,0,0,0,0,0,0,0
506,129,-13190,11915,-198,0,0,0,0,0,0,0,0,0,0,0
507,129,-13124,12013,-276,0,0,0,0,0,0,0,0,0,0,0
508,129,-12865,11956,-236,0,0,0,0,0,0,0,0,0,0,0
509,129,-12859,12136,-447,0,0,0,0,0,0,0,0,0,0,0
510,129,-12984,12489,-583,0,0,0,0,0,0,0,0,0,0,0
511,129,-12881,12437,-868,0,0,0,0,0,0,0,0,0,0,0
512,129,-12783,12393,-504,0,0,0,0,0,0,0,0,0,0,0
513,129,-12380,12437,-472,0,0,0,0,0,0,0,0,0,0,0
514,129,-11685,12454,-337,0,0,0,0,0,0,0,0,0,0,0
515,129,-10367,12506,-400,0,0,0,0,0,0,0,0,0,0,0
516,129,-11475,13078,238,0,0,0,0,0,0,0,0,0,0,0
517,129,-11111,13073,-373,0,0,0,0,0,0,0,0,0,0,0
518,129,-10962,13439,266,0,0,0,0,0,0,0,0,0,0,0
519,129,-10600,13298,-103,0,0,0,0,0,0,0,0,0,0,0
520,129,-10453,13503,-137,0,0,0,0,0,0,0,0,0,0,0
521,129,-9975,13816,-140,0,0,0,0,0,0,0,0,0,0,0
522,129,-9672,14018,27,0,0,0,0,0,0,0,0,0,0,0
523,129,-9573,14243,25,0,0,0,0,0,0,0,0,0,0,0
524,129,-9197,14157,117,0,0,0,0,0,0,0,0,0,0,0
525,129,-8530,14153,241,0,0,0,0,0,0,0,0,0,0,0
526,129,-8432,14161,84,0,0,0,0,0,0,0,0,0,0,0
527,129,-7916,14373,205,0,0,0,0,0,0,0,0,0,0,0
528,129,-7233,14700,51,0,0,0,0,0,0,0,0,0,0,0
529,129,-7009,14634,207,0,0,0,0,0,0,0,0,0,0,0
530,129,-6806,14512,420,0,0,0,0,0,0,0,0,0,0,0
531,129,-6490,14981,220,0,0,0,0,0,0,0,0,0,0,0
532,129,-6045,15172,361,0,0,0,0,0,0,0,0,0,0,0
533,129,-5789,15276,82,0,0,0,0,0,0,0,0,0,0,0
534,129,-5254,15168,123,0,0,0,0,0,0,0,0,0,0,0
535,129,-4804,15522,51,0,0,0,0,0,0,0,0,0,0,0
536,129,-4460,15502,319,0,0,0,0,0,0,0,0,0,0,0
537,129,-4408,16388,-34,0,0,0,0,0,0,0,0,0,0,0
538,129,-3838,15095,-132,0,0,0,0,0,0,0,0,0,0,0
539,129,-2408,15779,-115,0,0,0,0,0,0,0,0,0,0,0
540,129,-2490,17425,-233,0,0,0,0,0,0,0,0,0,0,0
541,129,-1893,16651,-235,0,0,0,0,0,0,0,0,0,0,0
542,129,-1632,16430,-96,0,0,0,0,0,0,0,0,0,0,0
543,129,-1190,16204,-207,0,0,0,0,0,0,0,0,0,0,0
544,129,-579,16031,-351,0,0,0,0,0,0,0,0,0,0,0
545,129,-304,16199,-349,0,0,0,0,0,0,0,0,0,0,0
546,129,-564,17781,-432,0,0,0,0,0,0,0,0,0,0,0
547,129,471,16222,-181,0,0,0,0,0,0,0,0,0,0,0
548,129,637,16205,79,0,0,0,0,0,0,0,0,0,0,0
549,129,898,16064,-193,0,0,0,0,0,0,0,0,0,0,0
550,129,1518,16321,-850,0,0,0,0,0,0,0,0,0,0,0
551,129,2287,15984,-45,0,0,0,0,0,0,0,0,0,0,0
552,129,2493,16008,103,0,0,0,0,0,0,0,0,0,0,0
553,129,3546,15754,-21,0,0,0,0,0,0,0,0,0,0,0
554,129,3097,15676,-577,0,0,0,0,0,0,0,0,0,0,0
555,129,3164,15322,-344,0,0,0,0,0,0,0,0,0,0,0
556,129,2765,15695,-373,0,0,0,0,0,0,0,0,0,0,0
557,129,3933,15840,-165,0,0,0,0,0,0,0,0,0,0,0
558,129,5211,17079,1613,0,0,0,0,0,0,0,0,0,0,0
559,129,5761,18161,419,0,0,0,0,0,0,0,0,0,0,0
560,129,3954,17464,-1043,0,0,0,0,0,0,0,0,0,0,0
561,129,3210,17773,907,0,0,0,0,0,0,0,0,0,0,0
562,129,5008,15901,-115,0,0,0,0,0,0,0,0,0,0,0
563,129,4773,16204,-1717,0,0,0,0,0,0,0,0,0,0,0
564,129,3317,16511,-1251,0,0,0,0,0,0,0,0,0,0,0
565,129,4302,16119,361,0,0,0,0,0,0,0,0,0,0,0
566,129,3969,17426,2116,0,0,0,0,0,0,0,0,0,0,0
567,129,5274,15050,-1271,0,0,0,0,0,0,0,0,0,0,0
568,129,3729,14892,974,0,0,0,0,0,0,0,0,0,0,0
569,129,4250,14291,1940,0,0,0,0,0,0,0,0,0,0,0
570,129,4237,14276,3008,0,0,0,0,0,0,0,0,0,0,0
571,129,4333,14083,3808,0,0,0,0,0,0,0,0,0,0,0
572,129,4060,13904,3991,0,0,0,0,0,0,0,0,0,0,0
573,129,5180,14254,3379,0,0,0,0,0,0,0,0,0,0,0
574,129,5406,14117,3752,0,0,0,0,0,0,0,0,0,0,0
575,129,4892,12243,-8856,0,0,0,0,0,0,0,0,0,0,0
576,129,2233,17389,2249,0,0,0,0,0,0,0,0,0,0,0
577,129,5621,16042,2640,0,0,0,0,0,0,0,0,0,0,0
578,129,6088,16675,1244,0,0,0,0,0,0,0,0,0,0,0
579,129,6519,16593,1479,0,0,0,0,0,0,0,0,0,0,0
580,129,5604,16759,2330,0,0,0,0,0,0,0,0,0,0,0
581,129,5468,16435,4087,0,0,0,0,0,0,0,0,0,0,0
582,129,5476,15268,3967,0,0,0,0,0,0,0,0,0,0,0
583,129,5061,15292,2637,0,0,0,0,0,0,0,0,0,0,0
584,129,4332,15821,2518,0,0,0,0,0,0,0,0,0,0,0
585,129,4670,15578,1371,0,0,0,0,0,0,0,0,0,0,0
586,129,4188,15421,1325,0,0,0,0,0,0,0,0,0,0,0
587,129,3004,15335,1565,0,0,0,0,0,0,0,0,0,0,0
588,129,3839,15413,2008,0,0,0,0,0,0,0,0,0,0,0
589,129,4489,16139,2281,0,0,0,0,0,0,0,0,0,0,0
590,129,3916,15916,3410,0,0,0,0,0,0,0,0,0,0,0
591,129,4045,15489,2886,0,0,0,0,0,0,0,0,0,0,0
592,129,4799,16248,872,0,0,0,0,0,0,0,0,0,0,0
593,129,3855,16143,817,0,0,0,0,0,0,0,0,0,0,0
594,129,3360,16159,1574,0,0,0,0,0,0,0,0,0,0,0
595,129,3578,15990,1601,0,0,0,0,0,0,0,0,0,0,0
596,129,3047,15884,2072,0,0,0,0,0,0,0,0,0,0,0
597,129,2492,15674,2483,0,0,0,0,0,0,0,0,0,0,0
598,129,2743,16372,3190,0,0,0,0,0,0,0,0,0,0,0
599,129,3132,16823,1985,0,0,0,0,0,0,0,0,0,0,0
600,129,3906,17552,888,0,0,0,0,0,0,0,0,0,0,0
601,129,3326,15667,580,0,0,0,0,0,0,0,0,0,0,0
602,129,3326,15944,576,0,0,0,0,0,0,0,0,0,0,0
603,129,3295,15609,976,0,0,0,0,0,0,0,0,0,0,0
604,129,2740,15955,1364,0,0,0,0,0,0,0,0,0,0,0
605,129,2296,15862,2606,0,0,0,0,0,0,0,0,0,0,0
606,129,2599,16350,1017,0,0,0,0,0,0,0,0,0,0,0
607,129,2496,16361,268,0,0,0,0,0,0,0,0,0,0,0
608,129,2330,16348,138,0,0,0,0,0,0,0,0,0,0,0
609,129,2554,16247,28,0,0,0,0,0,0,0,0,0,0,0
610,129,2770,16203,300,0,0,0,0,0,0,0,0,0,0,0
611,129,2913,16151,493,0,0,0,0,0,0,0,0,0,0,0
612,129,3282,16346,-2184,0,0,0,0,0,0,0,0,0,0,0
613,129,3268,15934,10,0,0,0,0,0,0,0,0,0,0,0
614,129,3398,16103,151,0,0,0,0,0,0,0,0,0,0,0
615,129,3192,16336,1108,0,0,0,0,0,0,0,0,0,0,0
616,129,3781,16314,410,0,0,0,0,0,0,0,0,0,0,0
617,129,3947,16139,-358,0,0,0,0,0,0,0,0,0,0,0
618,129,3791,16438,-349,0,0,0,0,0,0,0,0,0,0,0
619,129,3628,16675,-778,0,0,0,0,0,0,0,0,0,0,0
620,129,3854,16609,-632,0,0,0,0,0,0,0,0,0,0,0
621,129,4337,16392,-999,0,0,0,0,0,0,0,0,0,0,0
622,129,4266,16533,-945,0,0,0,0,0,0,0,0,0,0,0
623,129,4010,16389,-624,0,0,0,0,0,0,0,0,0,0,0
624,129,3966,16361,-659,0,0,0,0,0,0,0,0,0,0,0
625,129,4167,16448,-969,0,0,0,0,0,0,0,0,0,0,0
626,129,4186,16415,-673,0,0,0,0,0,0,0,0,0,0,0
627,129,4161,16742,-1118,0,0,0,0,0,0,0,0,0,0,0
628,129,4507,17024,-1274,0,0,0,0,0,0,0,0,0,0,0
629,129,4332,17282,-1308,0,0,0,0,0,0,0,0,0,0,0
630,129,4125,17012,-540,0,0,0,0,0,0,0,0,0,0,0
631,129,3746,16616,-157,0,0,0,0,0,0,0,0,0,0,0
632,129,3008,16566,139,0,0,0,0,0,0,0,0,0,0,0
633,129,2790,16236,367,0,0,0,0,0,0,0,0,0,0,0
634,129,2387,15893,610,0,0,0,0,0,0,0,0,0,0,0
635,129,2312,15218,914,0,0,0,0,0,0,0,0,0,0,0
636,129,2531,14312,1366,0,0,0,0,0,0,0,0,0,0,0
637,129,2469,14153,1078,0,0,0,0,0,0,0,0,0,0,0
638,129,1729,14585,1109,0,0,0,0,0,0,0,0,0,0,0
639,129,1922,14436,735,0,0,0,0,0,0,0,0,0,0,0
640,129,2169,14436,670,0,0,0,0,0,0,0,0,0,0,0
641,129,1673,14631,402,0,0,0,0,0,0,0,0,0,0,0
642,129,2123,15048,338,0,0,0,0,0,0,0,0,0,0,0
643,129,1904,15136,178,0,0,0,0,0,0,0,0,0,0,0
644,129,2174,15056,-158,0,0,0,0,0,0,0,0,0,0,0
645,129,1830,15106,-461,0,0,0,0,0,0,0,0,0,0,0
646,129,1755,15368,-637,0,0,0,0,0,0,0,0,0,0,0
647,129,1928,15535,-1350,0,0,0,0,0,0,0,0,0,0,0
648,129,2296,15666,-2014,0,0,0,0,0,0,0,0,0,0,0
649,129,2249,15768,-2319,0,0,0,0,0,0,0,0,0,0,0
650,129,2041,15743,-3395,0,0,0,0,0,0,0,0,0,0,0
651,129,1673,15867,-4599,0,0,0,0,0,0,0,0,0,0,0
652,129,1728,15876,-5731,0,0,0,0,0,0,0,0,0,0,0
653,129,1134,16010,-6002,0,0,0,0,0,0,0,0,0,0,0
654,129,1557,16082,-6454,0,0,0,0,0,0,0,0,0,0,0
655,129,1063,16405,-6668,0,0,0,0,0,0,0,0,0,0,0
656,129,826,16221,-7113,0,0,0,0,0,0,0,0,0,0,0
657,129,575,15764,-7171,0,0,0,0,0,0,0,0,0,0,0
658,129,699,15226,-7410,0,0,0,0,0,0,0,0,0,0,0
659,129,443,14972,-8189,0,0,0,0,0,0,0,0,0,0,0
660,129,174,14823,-8948,0,0,0,0,0,0,0,0,0,0,0
661,129,-294,14909,-9718,0,0,0,0,0,0,0,0,0,0,0
662,129,-330,14570,-10403,0,0,0,0,0,0,0,0,0,0,0
663,129,-276,14472,-10667,0,0,0,0,0,0,0,0,0,0,0
664,129,-36,14252,-11142,0,0,0,0,0,0,0,0,0,0,0
665,129,-90,14422,-11312,0,0,0,0,0,0,0,0,0,0,0
666,129,-55,14101,-11517,0,0,0,0,0,0,0,0,0,0,0
667,129,-434,13843,-11910,0,0,0,0,0,0,0,0,0,0,0
668,129,-526,13682,-12276,0,0,0,0,0,0,0,0,0,0,0
669,129,-505,13424,-12311,0,0,0,0,0,0,0,0,0,0,0
670,129,-430,13296,-12611,0,0,0,0,0,0,0,0,0,0,0
671,129,-745,13313,-12761,0,0,0,0,0,0,0,0,0,0,0
672,129,-2021,13719,-12853,0,0,0,0,0,0,0,0,0,0,0
673,129,-1118,13194,-13168,0,0,0,0,0,0,0,0,0,0,0
674,129,-976,12716,-13051,0,0,0,0,0,0,0,0,0,0,0
675,129,-1002,12880,-13018,0,0,0,0,0,0,0,0,0,0,0
676,129,-1215,13002,-13287,0,0,0,0,0,0,0,0,0,0,0
677,129,-966,13141,-13257,0,0,0,0,0,0,0,0,0,0,0
678,129,-989,13179,-13091,0,0,0,0,0,0,0,0,0,0,0
679,129,-971,13105,-13265,0,0,0,0,0,0,0,0,0,0,0
680,129,-996,13183,-13155,0,0,0,0,0,0,0,0,0,0,0
681,129,-1073,13133,-13701,0,0,0,0,0,0,0,0,0,0,0
682,129,-1000,13336,-12897,0,0,0,0,0,0,0,0,0,0,0
683,129,-1208,12979,-12968,0,0,0,0,0,0,0,0,0,0,0
684,129,-1317,13070,-13106,0,0,0,0,0,0,0,0,0,0,0
685,129,-1473,13229,-13042,0,0,0,0,0,0,0,0,0,0,0
686,129,-913,13366,-13138,0,0,0,0,0,0,0,0,0,0,0
687,129,-833,13430,-12695,0,0,0,0,0,0,0,0,0,0,0
688,129,-946,13465,-12648,0,0,0,0,0,0,0,0,0,0,0
689,129,-954,13461,-12742,0,0,0,0,0,0,0,0,0,0,0
690,129,-806,13489,-12534,0,0,0,0,0,0,0,0,0,0,0
691,129,-796,13448,-12488,0,0,0,0,0,0,0,0,0,0,0
692,129,-798,13461,-12190,0,0,0,0,0,0,0,0,0,0,0
693,129,-609,13475,-11896,0,0,0,0,0,0,0,0,0,0,0
694,129,-595,13767,-11655,0,0,0,0,0,0,0,0,0,0,0
695,129,-439,13869,-11702,0,0,0,0,0,0,0,0,0,0,0
696,129,-282,14155,-11058,0,0,0,0,0,0,0,0,0,0,0
697,129,-264,14050,-10923,0,0,0,0,0,0,0,0,0,0,0
698,129,-190,14117,-10656,0,0,0,0,0,0,0,0,0,0,0
699,129,-192,14174,-10405,0,0,0,0,0,0,0,0,0,0,0
700,129,-94,14407,-9898,0,0,0,0,0,0,0,0,0,0,0
701,129,161,14596,-9615,0,0,0,0,0,0,0,0,0,0,0
702,129,272,14680,-9351,0,0,0,0,0,0,0,0,0,0,0
703,129,297,14662,-9012,0,0,0,0,0,0,0,0,0,0,0
704,129,482,14489,-8715,0,0,0,0,0,0,0,0,0,0,0
705,129,617,14623,-8309,0,0,0,0,0,0,0,0,0,0,0
706,129,650,14815,-8029,0,0,0,0,0,0,0,0,0,0,0
707,129,636,15025,-7757,0,0,0,0,0,0,0,0,0,0,0
708,129,636,15191,-7238,0,0,0,0,0,0,0,0,0,0,0
709,129,804,15346,-6864,0,0,0,0,0,0,0,0,0,0,0
710,129,1022,15592,-6468,0,0,0,0,0,0,0,0,0,0,0
711,129,1217,15497,-6298,0,0,0,0,0,0,0,0,0,0,0
712,129,1308,15513,-5911,0,0,0,0,0,0,0,0,0,0,0
713,129,1285,15693,-5880,0,0,0,0,0,0,0,0,0,0,0
714,129,1198,15898,-5765,0,0,0,0,0,0,0,0,0,0,0
715,129,1558,15825,-4672,0,0,0,0,0,0,0,0,0,0,0
716,129,1736,15618,-4910,0,0,0,0,0,0,0,0,0,0,0
717,129,1415,15570,-4739,0,0,0,0,0,0,0,0,0,0,0
718,129,1243,15790,-4351,0,0,0,0,0,0,0,0,0,0,0
719,129,1606,16115,-4429,0,0,0,0,0,0,0,0,0,0,0
720,129,1617,15924,-4035,0,0,0,0,0,0,0,0,0,0,0
721,129,1922,15830,-3855,0,0,0,0,0,0,0,0,0,0,0
722,129,1838,15643,-3934,0,0,0,0,0,0,0,0,0,0,0
723,129,1695,15890,-3849,0,0,0,0,0,0,0,0,0,0,0
724,129,1589,16062,-3966,0,0,0,0,0,0,0,0,0,0,0
725,129,1877,16009,-3348,0,0,0,0,0,0,0,0,0,0,0
726,129,1855,16117,-3465,0,0,0,0,0,0,0,0,0,0,0
727,129,1780,16159,-2944,0,0,0,0,0,0,0,0,0,0,0
728,129,1796,16418,-3011,0,0,0,0,0,0,0,0,0,0,0
729,129,1913,16351,-2581,0,0,0,0,0,0,0,0,0,0,0
730,129,2035,16406,-2603,0,0,0,0,0,0,0,0,0,0,0
731,129,2240,16461,-2258,0,0,0,0,0,0,0,0,0,0,0
732,129,2188,16415,-2195,0,0,0,0,0,0,0,0,0,0,0
733,129,2319,16306,-2171,0,0,0,0,0,0,0,0,0,0,0
734,129,2186,16241,-2083,0,0,0,0,0,0,0,0,0,0,0
735,129,2380,16060,-1851,0,0,0,0,0,0,0,0,0,0,0
736,129,2317,16049,-1782,0,0,0,0,0,0,0,0,0,0,0
737,129,2146,16010,-1816,0,0,0,0,0,0,0,0,0,0,0
738,129,2256,16063,-1449,0,0,0,0,0,0,0,0,0,0,0
739,129,2152,16084,-1378,0,0,0,0,0,0,0,0,0,0,0
740,129,2126,16108,-1268,0,0,0,0,0,0,0,0,0,0,0
741,129,2099,16328,-1416,0,0,0,0,0,0,0,0,0,0,0
742,129,2214,16454,-1299,0,0,0,0,0,0,0,0,0,0,0
743,129,2153,16693,-1168,0,0,0,0,0,0,0,0,0,0,0
744,129,2352,16790,-855,0,0,0,0,0,0,0,0,0,0,0
745,129,2362,16567,-575,0,0,0,0,0,0,0,0,0,0,0
746,129,2169,16441,-1004,0,0,0,0,0,0,0,0,0,0,0
747,129,2021,16369,-1117,0,0,0,0,0,0,0,0,0,0,0
748,129,2183,16378,-412,0,0,0,0,0,0,0,0,0,0,0
749,129,2061,16120,-957,0,0,0,0,0,0,0,0,0,0,0
750,129,1931,16078,-855,0,0,0,0,0,0,0,0,0,0,0
751,129,1926,16317,-925,0,0,0,0,0,0,0,0,0,0,0
752,129,1957,16332,-938,0,0,0,0,0,0,0,0,0,0,0
753,129,2049,16500,-1093,0,0,0,0,0,0,0,0,0,0,0
754,129,2084,16484,-963,0,0,0,0,0,0,0,0,0,0,0
755,129,2164,16577,-1129,0,0,0,0,0,0,0,0,0,0,0
756,129,1650,16692,-1198,0,0,0,0,0,0,0,0,0,0,0
757,129,1861,16707,-1419,0,0,0,0,0,0,0,0,0,0,0
758,129,1916,16753,-1366,0,0,0,0,0,0,0,0,0,0,0
759,129,1892,16854,-1473,0,0,0,0,0,0,0,0,0,0,0
760,129,1759,16760,-1510,0,0,0,0,0,0,0,0,0,0,0
761,129,1911,16612,-1493,0,0,0,0,0,0,0,0,0,0,0
762,129,1785,16684,-1592,0,0,0,0,0,0,0,0,0,0,0
763,129,1897,16673,-1559,0,0,0,0,0,0,0,0,0,0,0
764,129,1906,16636,-1493,0,0,0,0,0,0,0,0,0,0,0
765,129,1813,16558,-1697,0,0,0,0,0,0,0,0,0,0,0
766,129,1970,16537,-1559,0,0,0,0,0,0,0,0,0,0,0
767,129,1924,16689,-1808,0,0,0,0,0,0,0,0,0,0,0
768,129,1914,16645,-1705,0,0,0,0,0,0,0,0,0,0,0
769,129,1941,16676,-1748,0,0,0,0,0,0,0,0,0,0,0
770,129,1880,16760,-1842,0,0,0,0,0,0,0,0,0,0,0
771,129,1906,16951,-1878,0,0,0,0,0,0,0,0,0,0,0
772,129,2034,16736,-1890,0,0,0,0,0,0,0,0,0,0,0
773,129,1878,16623,-2041,0,0,0,0,0,0,0,0,0,0,0
774,129,1907,16618,-1909,0,0,0,0,0,0,0,0,0,0,0
775,129,1888,16617,-1899,0,0,0,0,0,0,0,0,0,0,0
776,129,1862,16593,-1708,0,0,0,0,0,0,0,0,0,0,0
777,129,1739,16544,-1840,0,0,0,0,0,0,0,0,0,0,0
778,129,1990,16500,-1719,0,0,0,0,0,0,0,0,0,0,0
779,129,1749,16630,-1953,0,0,0,0,0,0,0,0,0,0,0
780,129,1804,16649,-2074,0,0,0,0,0,0,0,0,0,0,0
781,129,2029,16717,-1593,0,0,0,0,0,0,0,0,0,0,0
782,129,1986,16586,-1419,0,0,0,0,0,0,0,0,0,0,0
783,129,1837,16536,-1727,0,0,0,0,0,0,0,0,0,0,0
784,129,1899,16693,-1718,0,0,0,0,0,0,0,0,0,0,0
785,129,2021,16732,-1748,0,0,0,0,0,0,0,0,0,0,0
786,129,1950,16683,-1560,0,0,0,0,0,0,0,0,0,0,0
787,129,2073,16694,-1634,0,0,0,0,0,0,0,0,0,0,0
788,129,2034,16660,-1619,0,0,0,0,0,0,0,0,0,0,0
789,129,1920,16770,-1602,0,0,0,0,0,0,0,0,0,0,0
790,129,1984,16812,-1582,0,0,0,0,0,0,0,0,0,0,0
791,129,1873,16681,-1483,0,0,0,0,0,0,0,0,0,0,0
792,129,2044,16648,-1218,0,0,0,0,0,0,0,0,0,0,0
793,129,1991,16502,-1316,0,0,0,0,0,0,0,0,0,0,0
794,129,2113,16463,-1181,0,0,0,0,0,0,0,0,0,0,0
795,129,2072,16535,-1107,0,0,0,0,0,0,0,0,0,0,0
796,129,1924,16354,-1304,0,0,0,0,0,0,0,0,0,0,0
797,129,2030,16348,-1303,0,0,0,0,0,0,0,0,0,0,0
798,129,2032,16443,-1206,0,0,0,0,0,0,0,0,0,0,0
799,129,2086,16403,-1080,0,0,0,0,0,0,0,0,0,0,0
800,129,2194,16540,-1015,0,0,0,0,0,0,0,0,0,0,0
801,129,2141,16685,-1202,0,0,0,0,0,0,0,0,0,0,0
802,129,2211,16637,-1064,0,0,0,0,0,0,0,0,0,0,0
803,129,2093,16692,-1163,0,0,0,0,0,0,0,0,0,0,0
804,129,2123,16442,-973,0,0,0,0,0,0,0,0,0,0,0
805,129,2076,16413,-976,0,0,0,0,0,0,0,0,0,0,0
806,129,2026,16488,-1008,0,0,0,0,0,0,0,0,0,0,0
807,129,2116,16479,-1222,0,0,0,0,0,0,0,0,0,0,0
808,129,1979,16585,-1125,0,0,0,0,0,0,0,0,0,0,0
809,129,2104,16598,-1110,0,0,0,0,0,0,0,0,0,0,0
810,129,2065,16633,-1060,0,0,0,0,0,0,0,0,0,0,0
811,129,2154,16509,-1112,0,0,0,0,0,0,0,0,0,0,0
812,129,2172,16558,-1011,0,0,0,0,0,0,0,0,0,0,0
813,129,2068,16604,-1346,0,0,0,0,0,0,0,0,0,0,0
814,129,1996,16614,-1382,0,0,0,0,0,0,0,0,0,0,0
815,129,2134,16526,-1132,0,0,0,0,0,0,0,0,0,0,0
816,129,2144,16513,-1082,0,0,0,0,0,0,0,0,0,0,0
817,129,1992,16588,-1431,0,0,0,0,0,0,0,0,0,0,0
818,129,2060,16790,-1440,0,0,0,0,0,0,0,0,0,0,0
819,129,2082,16819,-1389,0,0,0,0,0,0,0,0,0,0,0
820,129,2061,16751,-1264,0,0,0,0,0,0,0,0,0,0,0
821,129,2177,16760,-1361,0,0,0,0,0,0,0,0,0,0,0
822,129,1985,16744,-1491,0,0,0,0,0,0,0,0,0,0,0
823,129,1887,16683,-1499,0,0,0,0,0,0,0,0,0,0,0
824,129,1933,16508,-1340,0,0,0,0,0,0,0,0,0,0,0
825,129,1899,16509,-1391,0,0,0,0,0,0,0,0,0,0,0
826,129,1911,16538,-1254,0,0,0,0,0,0,0,0,0,0,0
827,129,2042,16665,-1439,0,0,0,0,0,0,0,0,0,0,0
828,129,1980,16674,-1430,0,0,0,0,0,0,0,0,0,0,0
829,129,2135,16720,-1316,0,0,0,0,0,0,0,0,0,0,0
830,129,2022,16717,-1411,0,0,0,0,0,0,0,0,0,0,0
831,129,2075,16619,-1208,0,0,0,0,0,0,0,0,0,0,0
832,129,2029,16585,-1256,0,0,0,0,0,0,0,0,0,0,0
833,129,2034,16602,-1172,0,0,0,0,0,0,0,0,0,0,0
834,129,2039,16682,-1263,0,0,0,0,0,0,0,0,0,0,0
835,129,2073,16677,-1233,0,0,0,0,0,0,0,0,0,0,0
836,129,2120,16658,-1336,0,0,0,0,0,0,0,0,0,0,0
837,129,2069,16530,-1237,0,0,0,0,0,0,0,0,0,0,0
838,129,1994,16560,-1285,0,0,0,0,0,0,0,0,0,0,0
839,129,1920,16638,-986,0,0,0,0,0,0,0,0,0,0,0
840,129,2121,16614,-1179,0,0,0,0,0,0,0,0,0,0,0
841,129,2097,16733,-954,0,0,0,0,0,0,0,0,0,0,0
842,129,2200,16908,-995,0,0,0,0,0,0,0,0,0,0,0
843,129,2070,16875,-951,0,0,0,0,0,0,0,0,0,0,0
844,129,2244,16781,-852,0,0,0,0,0,0,0,0,0,0,0
845,129,2281,16700,-745,0,0,0,0,0,0,0,0,0,0,0
846,129,2265,16645,-959,0,0,0,0,0,0,0,0,0,0,0
847,129,2115,16910,-1074,0,0,0,0,0,0,0,0,0,0,0
848,129,2310,16869,-814,0,0,0,0,0,0,0,0,0,0,0
849,129,2450,16800,-1003,0,0,0,0,0,0,0,0,0,0,0
850,129,2256,16767,-890,0,0,0,0,0,0,0,0,0,0,0
851,129,2157,16778,-1025,0,0,0,0,0,0,0,0,0,0,0
852,129,2469,16836,-761,0,0,0,0,0,0,0,0,0,0,0
853,129,2330,16800,-771,0,0,0,0,0,0,0,0,0,0,0
854,129,2324,16752,-772,0,0,0,0,0,0,0,0,0,0,0
855,129,2315,16643,-793,0,0,0,0,0,0,0,0,0,0,0
856,129,2261,16538,-647,0,0,0,0,0,0,0,0,0,0,0
857,129,2363,16390,-607,0,0,0,0,0,0,0,0,0,0,0
858,129,2345,16290,-233,0,0,0,0,0,0,0,0,0,0,0
859,129,2388,16389,2,0,0,0,0,0,0,0,0,0,0,0
860,129,2263,16510,31,0,0,0,0,0,0,0,0,0,0,0
861,129,2423,16772,258,0,0,0,0,0,0,0,0,0,0,0
862,129,2599,16851,375,0,0,0,0,0,0,0,0,0,0,0
863,129,2633,16670,463,0,0,0,0,0,0,0,0,0,0,0
864,129,2513,16724,628,0,0,0,0,0,0,0,0,0,0,0
865,129,2503,16619,703,0,0,0,0,0,0,0,0,0,0,0
866,129,2480,16511,931,0,0,0,0,0,0,0,0,0,0,0
867,129,2398,16353,1074,0,0,0,0,0,0,0,0,0,0,0
868,129,2472,16412,1321,0,0,0,0,0,0,0,0,0,0,0
869,129,2492,16435,1430,0,0,0,0,0,0,0,0,0,0,0
870,129,2510,16463,1798,0,0,0,0,0,0,0,0,0,0,0
871,129,2576,16319,2057,0,0,0,0,0,0,0,0,0,0,0
872,129,2608,16325,2325,0,0,0,0,0,0,0,0,0,0,0
873,129,2690,16099,2600,0,0,0,0,0,0,0,0,0,0,0
874,129,2777,16132,3074,0,0,0,0,0,0,0,0,0,0,0
875,129,2785,15948,3434,0,0,0,0,0,0,0,0,0,0,0
876,129,2808,15920,3792,0,0,0,0,0,0,0,0,0,0,0
877,129,2613,15559,3993,0,0,0,0,0,0,0,0,0,0,0
878,129,2666,15501,4197,0,0,0,0,0,0,0,0,0,0,0
879,129,2617,15369,4151,0,0,0,0,0,0,0,0,0,0,0
880,129,2412,15075,4365,0,0,0,0,0,0,0,0,0,0,0
881,129,2517,14864,4528,0,0,0,0,0,0,0,0,0,0,0
882,129,2508,15000,4666,0,0,0,0,0,0,0,0,0,0,0
883,129,2512,15127,4569,0,0,0,0,0,0,0,0,0,0,0
884,129,2364,15282,4838,0,0,0,0,0,0,0,0,0,0,0
885,129,2475,15061,4913,0,0,0,0,0,0,0,0,0,0,0
886,129,2823,15024,5163,0,0,0,0,0,0,0,0,0,0,0
887,129,3131,15108,5430,0,0,0,0,0,0,0,0,0,0,0
888,129,2961,15060,5681,0,0,0,0,0,0,0,0,0,0,0
889,129,2856,14843,5745,0,0,0,0,0,0,0,0,0,0,0
890,129,2961,14558,6081,0,0,0,0,0,0,0,0,0,0,0
891,129,2800,14153,6325,0,0,0,0,0,0,0,0,0,0,0
892,129,2695,14039,6508,0,0,0,0,0,0,0,0,0,0,0
893,129,2901,13785,7113,0,0,0,0,0,0,0,0,0,0,0
894,129,2831,13505,7417,0,0,0,0,0,0,0,0,0,0,0
895,129,2689,13260,7726,0,0,0,0,0,0,0,0,0,0,0
896,129,2612,13343,8350,0,0,0,0,0,0,0,0,0,0,0
897,129,2462,13350,8559,0,0,0,0,0,0,0,0,0,0,0
898,129,2237,12942,9108,0,0,0,0,0,0,0,0,0,0,0
899,129,2033,12625,9463,0,0,0,0,0,0,0,0,0,0,0
900,129,2346,12460,9847,0,0,0,0,0,0,0,0,0,0,0
901,129,2232,12138,9457,0,0,0,0,0,0,0,0,0,0,0
902,129,1978,12390,10231,0,0,0,0,0,0,0,0,0,0,0
903,129,2375,12371,10428,0,0,0,0,0,0,0,0,0,0,0
904,129,2245,12131,10528,0,0,0,0,0,0,0,0,0,0,0
905,129,2252,11860,10483,0,0,0,0,0,0,0,0,0,0,0
906,129,2025,11532,10377,0,0,0,0,0,0,0,0,0,0,0
907,129,2155,11215,11049,0,0,0,0,0,0,0,0,0,0,0
908,129,1792,10594,11134,0,0,0,0,0,0,0,0,0,0,0
909,129,1653,9792,11447,0,0,0,0,0,0,0,0,0,0,0
910,129,1428,8998,11102,0,0,0,0,0,0,0,0,0,0,0
911,129,1437,8900,11719,0,0,0,0,0,0,0,0,0,0,0
912,129,1834,8765,12524,0,0,0,0,0,0,0,0,0,0,0
913,129,1926,8719,12598,0,0,0,0,0,0,0,0,0,0,0
914,129,2167,9055,13032,0,0,0,0,0,0,0,0,0,0,0
915,129,2647,9013,13006,0,0,0,0,0,0,0,0,0,0,0
916,129,2976,8950,13097,0,0,0,0,0,0,0,0,0,0,0
917,129,2978,8766,12960,0,0,0,0,0,0,0,0,0,0,0
918,129,3092,8689,12962,0,0,0,0,0,0,0,0,0,0,0
919,129,2875,8608,12711,0,0,0,0,0,0,0,0,0,0,0
920,129,2628,8543,12533,0,0,0,0,0,0,0,0,0,0,0
921,129,2455,8392,12566,0,0,0,0,0,0,0,0,0,0,0
922,129,2542,8601,12463,0,0,0,0,0,0,0,0,0,0,0
923,129,2565,8723,12307,0,0,0,0,0,0,0,0,0,0,0
924,129,2920,9185,12432,0,0,0,0,0,0,0,0,0,0,0
925,129,2962,9502,12202,0,0,0,0,0,0,0,0,0,0,0
926,129,2962,9786,12061,0,0,0,0,0,0,0,0,0,0,0
927,129,3005,10226,11627,0,0,0,0,0,0,0,0,0,0,0
928,129,3029,10513,11660,0,0,0,0,0,0,0,0,0,0,0
929,129,2923,10319,11447,0,0,0,0,0,0,0,0,0,0,0
930,129,2732,10282,11348,0,0,0,0,0,0,0,0,0,0,0
931,129,2865,10314,10907,0,0,0,0,0,0,0,0,0,0,0
932,129,2717,10611,10956,0,0,0,0,0,0,0,0,0,0,0
933,129,2778,10741,10836,0,0,0,0,0,0,0,0,0,0,0
934,129,2857,10881,10733,0,0,0,0,0,0,0,0,0,0,0
935,129,3009,11156,10244,0,0,0,0,0,0,0,0,0,0,0
936,129,2930,11745,9412,0,0,0,0,0,0,0,0,0,0,0
937,129,2854,12465,9644,0,0,0,0,0,0,0,0,0,0,0
938,129,3008,12653,9586,0,0,0,0,0,0,0,0,0,0,0
939,129,3152,12679,9203,0,0,0,0,0,0,0,0,0,0,0
940,129,2998,12883,8889,0,0,0,0,0,0,0,0,0,0,0
941,129,3075,13068,8958,0,0,0,0,0,0,0,0,0,0,0
942,129,3033,12985,8627,0,0,0,0,0,0,0,0,0,0,0
943,129,3015,13071,8476,0,0,0,0,0,0,0,0,0,0,0
944,129,3261,12903,8225,0,0,0,0,0,0,0,0,0,0,0
945,129,3971,12895,7511,0,0,0,0,0,0,0,0,0,0,0
946,129,3510,13646,7521,0,0,0,0,0,0,0,0,0,0,0
947,129,3620,13679,7465,0,0,0,0,0,0,0,0,0,0,0
948,129,3598,13814,7330,0,0,0,0,0,0,0,0,0,0,0
949,129,3688,13998,6848,0,0,0,0,0,0,0,0,0,0,0
950,129,3549,14284,6701,0,0,0,0,0,0,0,0,0,0,0
951,129,3425,14514,6620,0,0,0,0,0,0,0,0,0,0,0
952,129,3609,14471,6322,0,0,0,0,0,0,0,0,0,0,0
953,129,3420,14555,5891,0,0,0,0,0,0,0,0,0,0,0
954,129,3372,14647,6037,0,0,0,0,0,0,0,0,0,0,0
955,129,3381,14736,5653,0,0,0,0,0,0,0,0,0,0,0
956,129,3412,14869,5547,0,0,0,0,0,0,0,0,0,0,0
957,129,3423,14840,5315,0,0,0,0,0,0,0,0,0,0,0
958,129,3467,14907,5282,0,0,0,0,0,0,0,0,0,0,0
959,129,3403,15188,5032,0,0,0,0,0,0,0,0,0,0,0
960,129,3490,14796,4840,0,0,0,0,0,0,0,0,0,0,0
961,129,3346,14858,4699,0,0,0,0,0,0,0,0,0,0,0
962,129,3280,14907,4353,0,0,0,0,0,0,0,0,0,0,0
963,129,3278,15096,4025,0,0,0,0,0,0,0,0,0,0,0
964,129,3200,15335,3907,0,0,0,0,0,0,0,0,0,0,0
965,129,3279,15377,3451,0,0,0,0,0,0,0,0,0,0,0
966,129,3153,15439,3130,0,0,0,0,0,0,0,0,0,0,0
967,129,3146,15543,2616,0,0,0,0,0,0,0,0,0,0,0
968,129,3145,15625,2527,0,0,0,0,0,0,0,0,0,0,0
969,129,3031,15862,2324,0,0,0,0,0,0,0,0,0,0,0
970,129,3008,15841,2090,0,0,0,0,0,0,0,0,0,0,0
971,129,3028,16112,1993,0,0,0,0,0,0,0,0,0,0,0
972,129,2817,16219,1462,0,0,0,0,0,0,0,0,0,0,0
973,129,2926,16559,1013,0,0,0,0,0,0,0,0,0,0,0
974,129,2967,16898,1151,0,0,0,0,0,0,0,0,0,0,0
975,129,2594,17063,728,0,0,0,0,0,0,0,0,0,0,0
976,129,2586,17248,301,0,0,0,0,0,0,0,0,0,0,0
977,129,2372,17463,56,0,0,0,0,0,0,0,0,0,0,0
978,129,2348,17609,-233,0,0,0,0,0,0,0,0,0,0,0
979,129,2262,17468,-531,0,0,0,0,0,0,0,0,0,0,0
980,129,2332,17174,-713,0,0,0,0,0,0,0,0,0,0,0
981,129,2080,17008,-944,0,0,0,0,0,0,0,0,0,0,0
982,129,2434,16544,-1170,0,0,0,0,0,0,0,0,0,0,0
983,129,2000,16340,-1255,0,0,0,0,0,0,0,0,0,0,0
984,129,1973,16290,-1366,0,0,0,0,0,0,0,0,0,0,0
985,129,1872,16225,-1470,0,0,0,0,0,0,0,0,0,0,0
986,129,1603,16174,-1590,0,0,0,0,0,0,0,0,0,0,0
987,129,1550,16186,-1702,0,0,0,0,0,0,0,0,0,0,0
988,129,724,16078,-1184,0,0,0,0,0,0,0,0,0,0,0
989,129,1722,16606,-1738,0,0,0,0,0,0,0,0,0,0,0
990,129,2519,17230,-2029,0,0,0,0,0,0,0,0,0,0,0
991,129,2192,16735,-1636,0,0,0,0,0,0,0,0,0,0,0
992,129,2147,16852,-1604,0,0,0,0,0,0,0,0,0,0,0
993,129,2297,16754,-1625,0,0,0,0,0,0,0,0,0,0,0
994,129,2402,17004,-1319,0,0,0,0,0,0,0,0,0,0,0
995,129,2373,16549,-1548,0,0,0,0,0,0,0,0,0,0,0
996,129,2524,16497,-1587,0,0,0,0,0,0,0,0,0,0,0
997,129,2332,16010,-1041,0,0,0,0,0,0,0,0,0,0,0
998,129,2638,16374,-1387,0,0,0,0,0,0,0,0,0,0,0
999,129,2521,16259,-1705,0,0,0,0,0,0,0,0,0,0,0
1000,129,2484,16345,-1565,0,0,0,0,0,0,0,0,0,0,0
1001,129,2265,16470,-1554,0,0,0,0,0,0,0,0,0,0,0
1002,129,2011,16619,-2213,0,0,0,0,0,0,0,0,0,0,0
1003,129,1840,16818,-2669,0,0,0,0,0,0,0,0,0,0,0
1004,129,1420,17404,-2528,0,0,0,0,0,0,0,0,0,0,0
1005,129,1102,17671,-2292,0,0,0,0,0,0,0,0,0,0,0
1006,129,1179,17348,-2474,0,0,0,0,0,0,0,0,0,0,0
1007,129,1263,17163,-2587,0,0,0,0,0,0,0,0,0,0,0
1008,129,1410,16721,-2428,0,0,0,0,0,0,0,0,0,0,0
1009,129,1701,16386,-2317,0,0,0,0,0,0,0,0,0,0,0
1010,129,1926,16119,-2327,0,0,0,0,0,0,0,0,0,0,0
1011,129,2099,15939,-2203,0,0,0,0,0,0,0,0,0,0,0
1012,129,2283,15931,-1989,0,0,0,0,0,0,0,0,0,0,0
1013,129,2669,16081,-1991,0,0,0,0,0,0,0,0,0,0,0
1014,129,2712,16260,-2230,0,0,0,0,0,0,0,0,0,0,0
1015,129,2400,16588,-2005,0,0,0,0,0,0,0,0,0,0,0
1016,129,2370,16722,-2072,0,0,0,0,0,0,0,0,0,0,0
1017,129,2156,16206,-2220,0,0,0,0,0,0,0,0,0,0,0
1018,129,2558,16358,-1957,0,0,0,0,0,0,0,0,0,0,0
1019,129,2292,16514,-1855,0,0,0,0,0,0,0,0,0,0,0
1020,129,2286,16416,-2108,0,0,0,0,0,0,0,0,0,0,0
1021,129,2594,16658,-1962,0,0,0,0,0,0,0,0,0,0,0
1022,129,2510,17011,-1947,0,0,0,0,0,0,0,0,0,0,0
1023,129,2445,17338,-1957,0,0,0,0,0,0,0,0,0,0,0
1024,129,2291,17168,-1960,0,0,0,0,0,0,0,0,0,0,0
1025,129,2370,16947,-2045,0,0,0,0,0,0,0,0,0,0,0
1026,129,1961,16984,-2194,0,0,0,0,0,0,0,0,0,0,0
1027,129,1795,16654,-2086,0,0,0,0,0,0,0,0,0,0,0
1028,129,1718,16415,-2123,0,0,0,0,0,0,0,0,0,0,0
1029,129,1599,16381,-1911,0,0,0,0,0,0,0,0,0,0,0
1030,129,1640,16400,-1907,0,0,0,0,0,0,0,0,0,0,0
1031,129,1564,16309,-2050,0,0,0,0,0,0,0,0,0,0,0
1032,129,1484,16477,-2219,0,0,0,0,0,0,0,0,0,0,0
1033,129,1699,16694,-1551,0,0,0,0,0,0,0,0,0,0,0
1034,129,1797,16662,-1668,0,0,0,0,0,0,0,0,0,0,0
1035,129,1739,16505,-1902,0,0,0,0,0,0,0,0,0,0,0
1036,129,1809,16775,-1741,0,0,0,0,0,0,0,0,0,0,0
1037,129,2025,16811,-2003,0,0,0,0,0,0,0,0,0,0,0
1038,129,1913,16762,-1951,0,0,0,0,0,0,0,0,0,0,0
1039,129,1915,16540,-1968,0,0,0,0,0,0,0,0,0,0,0
1040,129,1837,16611,-2074,0,0,0,0,0,0,0,0,0,0,0
1041,129,1779,16664,-2076,0,0,0,0,0,0,0,0,0,0,0
1042,129,1849,16486,-1931,0,0,0,0,0,0,0,0,0,0,0
1043,129,1723,16410,-2029,0,0,0,0,0,0,0,0,0,0,0
1044,129,1704,16484,-1885,0,0,0,0,0,0,0,0,0,0,0
1045,129,1721,16546,-2020,0,0,0,0,0,0,0,0,0,0,0
1046,129,1867,16773,-1952,0,0,0,0,0,0,0,0,0,0,0
1047,129,1823,16587,-2128,0,0,0,0,0,0,0,0,0,0,0
1048,129,1692,16676,-1995,0,0,0,0,0,0,0,0,0,0,0
1049,129,1795,16761,-1973,0,0,0,0,0,0,0,0,0,0,0
1050,129,1764,16648,-2098,0,0,0,0,0,0,0,0,0,0,0
1051,129,1577,16568,-2215,0,0,0,0,0,0,0,0,0,0,0
1052,129,1648,16699,-1939,0,0,0,0,0,0,0,0,0,0,0
1053,129,1712,16630,-2077,0,0,0,0,0,0,0,0,0,0,0
1054,129,1779,16634,-2198,0,0,0,0,0,0,0,0,0,0,0
1055,129,1644,16526,-1995,0,0,0,0,0,0,0,0,0,0,0
1056,129,1788,16584,-1995,0,0,0,0,0,0,0,0,0,0,0
1057,129,1748,16679,-2174,0,0,0,0,0,0,0,0,0,0,0
1058,129,1691,16624,-2010,0,0,0,0,0,0,0,0,0,0,0
1059,129,1751,16575,-1975,0,0,0,0,0,0,0,0,0,0,0
1060,129,1738,16646,-1791,0,0,0,0,0,0,0,0,0,0,0
1061,129,1688,16636,-2381,0,0,0,0,0,0,0,0,0,0,0
1062,129,1742,16669,-2168,0,0,0,0,0,0,0,0,0,0,0
1063,129,1824,16603,-1964,0,0,0,0,0,0,0,0,0,0,0
1064,129,1755,16561,-1696,0,0,0,0,0,0,0,0,0,0,0
1065,129,1842,16487,-2027,0,0,0,0,0,0,0,0,0,0,0
1066,129,1825,16686,-1957,0,0,0,0,0,0,0,0,0,0,0
1067,129,1870,16641,-1981,0,0,0,0,0,0,0,0,0,0,0
1068,129,1828,16616,-1872,0,0,0,0,0,0,0,0,0,0,0
1069,129,1799,16534,-2031,0,0,0,0,0,0,0,0,0,0,0
1070,129,1769,16707,-1928,0,0,0,0,0,0,0,0,0,0,0
1071,129,1746,16655,-2050,0,0,0,0,0,0,0,0,0,0,0
1072,129,1773,16548,-2033,0,0,0,0,0,0,0,0,0,0,0
1073,129,1679,16567,-2186,0,0,0,0,0,0,0,0,0,0,0
1074,129,1783,16684,-2034,0,0,0,0,0,0,0,0,0,0,0
1075,129,1767,16728,-2081,0,0,0,0,0,0,0,0,0,0,0
1076,129,1892,16589,-1981,0,0,0,0,0,0,0,0,0,0,0
1077,129,1819,16611,-2052,0,0,0,0,0,0,0,0,0,0,0
1078,129,1711,16614,-2027,0,0,0,0,0,0,0,0,0,0,0
1079,129,1762,16632,-2066,0,0,0,0,0,0,0,0,0,0,0
1080,129,1793,16653,-1944,0,0,0,0,0,0,0,0,0,0,0
1081,129,1834,16664,-1919,0,0,0,0,0,0,0,0,0,0,0
1082,129,1764,16588,-1957,0,0,0,0,0,0,0,0,0,0,0
1083,129,1957,16651,-1888,0,0,0,0,0,0,0,0,0,0,0
1084,129,1727,16591,-1924,0,0,0,0,0,0,0,0,0,0,0
1085,129,1813,16525,-2031,0,0,0,0,0,0,0,0,0,0,0
1086,129,1707,16626,-2065,0,0,0,0,0,0,0,0,0,0,0
1087,129,1758,16594,-1939,0,0,0,0,0,0,0,0,0,0,0
1088,129,1723,16617,-1989,0,0,0,0,0,0,0,0,0,0,0
1089,129,1766,16606,-1881,0,0,0,0,0,0,0,0,0,0,0
1090,129,1779,16512,-1892,0,0,0,0,0,0,0,0,0,0,0
1091,129,1611,16636,-2054,0,0,0,0,0,0,0,0,0,0,0
1092,129,1731,16719,-1974,0,0,0,0,0,0,0,0,0,0,0
1093,129,1762,16606,-1955,0,0,0,0,0,0,0,0,0,0,0
1094,129,1752,16487,-1916,0,0,0,0,0,0,0,0,0,0,0
1095,129,1595,16578,-2213,0,0,0,0,0,0,0,0,0,0,0
1096,129,1685,16672,-1913,0,0,0,0,0,0,0,0,0,0,0
1097,129,1836,16790,-2020,0,0,0,0,0,0,0,0,0,0,0
1098,129,1755,16640,-1999,0,0,0,0,0,0,0,0,0,0,0
1099,129,1718,16641,-2045,0,0,0,0,0,0,0,0,0,0,0
1100,129,1669,16607,-2046,0,0,0,0,0,0,0,0,0,0,0
1101,129,1717,16575,-1942,0,0,0,0,0,0,0,0,0,0,0
1102,129,1609,16518,-1912,0,0,0,0,0,0,0,0,0,0,0
1103,129,1644,16582,-2058,0,0,0,0,0,0,0,0,0,0,0
1104,129,1732,16734,-1948,0,0,0,0,0,0,0,0,0,0,0
1105,129,1753,16670,-1874,0,0,0,0,0,0,0,0,0,0,0
1106,129,1857,16749,-1990,0,0,0,0,0,0,0,0,0,0,0
1107,129,1865,16739,-2076,0,0,0,0,0,0,0,0,0,0,0
1108,129,1838,16646,-1975,0,0,0,0,0,0,0,0,0,0,0
1109,129,1656,16470,-2010,0,0,0,0,0,0,0,0,0,0,0
1110,129,1784,16655,-1822,0,0,0,0,0,0,0,0,0,0,0
1111,129,1802,16657,-1976,0,0,0,0,0,0,0,0,0,0,0
1112,129,1777,16603,-1881,0,0,0,0,0,0,0,0,0,0,0
1113,129,1865,16657,-1871,0,0,0,0,0,0,0,0,0,0,0
1114,129,1817,16546,-1785,0,0,0,0,0,0,0,0,0,0,0
1115,129,1837,16524,-1855,0,0,0,0,0,0,0,0,0,0,0
1116,129,1851,16595,-1870,0,0,0,0,0,0,0,0,0,0,0
1117,129,1883,16567,-1894,0,0,0,0,0,0,0,0,0,0,0
1118,129,1797,16653,-1832,0,0,0,0,0,0,0,0,0,0,0
1119,129,1919,16673,-1812,0,0,0,0,0,0,0,0,0,0,0
