ProgrNum,PacketType,AccX,AccY,AccZ,GyrX,GyrY,GyrZ,MagX,MagY,MagZ,Q0,Q1,Q2,Q3,Vbat
0,129,1726,15006,7530,0,0,0,0,0,0,0,0,0,0,0
1,129,1738,15692,7474,0,0,0,0,0,0,0,0,0,0,0
2,129,1502,16228,7794,0,0,0,0,0,0,0,0,0,0,0
3,129,1026,17070,7446,0,0,0,0,0,0,0,0,0,0,0
4,129,1314,16542,7400,0,0,0,0,0,0,0,0,0,0,0
5,129,1680,15226,7292,0,0,0,0,0,0,0,0,0,0,0
6,129,1896,14966,6924,0,0,0,0,0,0,0,0,0,0,0
7,129,2000,15068,6668,0,0,0,0,0,0,0,0,0,0,0
8,129,2022,14774,7104,0,0,0,0,0,0,0,0,0,0,0
9,129,1456,14198,6754,0,0,0,0,0,0,0,0,0,0,0
10,129,2058,14486,6986,0,0,0,0,0,0,0,0,0,0,0
11,129,2026,14528,7382,0,0,0,0,0,0,0,0,0,0,0
12,129,1968,14524,7108,0,0,0,0,0,0,0,0,0,0,0
13,129,2026,14458,7300,0,0,0,0,0,0,0,0,0,0,0
14,129,2290,14556,7502,0,0,0,0,0,0,0,0,0,0,0
15,129,2192,14386,7214,0,0,0,0,0,0,0,0,0,0,0
16,129,1782,14474,7466,0,0,0,0,0,0,0,0,0,0,0
17,129,1766,14396,7448,0,0,0,0,0,0,0,0,0,0,0
18,129,1746,14648,7222,0,0,0,0,0,0,0,0,0,0,0
19,129,2084,14296,6546,0,0,0,0,0,0,0,0,0,0,0
20,129,1836,14398,6938,0,0,0,0,0,0,0,0,0,0,0
21,129,1630,13590,6782,0,0,0,0,0,0,0,0,0,0,0
22,129,1452,13740,7068,0,0,0,0,0,0,0,0,0,0,0
23,129,2188,14440,8232,0,0,0,0,0,0,0,0,0,0,0
24,129,3282,15342,7854,0,0,0,0,0,0,0,0,0,0,0
25,129,3586,14820,7902,0,0,0,0,0,0,0,0,0,0,0
26,129,2920,15020,8366,0,0,0,0,0,0,0,0,0,0,0
27,129,2958,14876,8220,0,0,0,0,0,0,0,0,0,0,0
28,129,2860,14512,7864,0,0,0,0,0,0,0,0,0,0,0
29,129,2164,16034,8182,0,0,0,0,0,0,0,0,0,0,0
30,129,2974,13568,8078,0,0,0,0,0,0,0,0,0,0,0
31,129,2996,13622,8136,0,0,0,0,0,0,0,0,0,0,0
32,129,2664,13630,8040,0,0,0,0,0,0,0,0,0,0,0
33,129,2340,13526,7362,0,0,0,0,0,0,0,0,0,0,0
34,129,2428,13662,7774,0,0,0,0,0,0,0,0,0,0,0
35,129,1702,14014,7294,0,0,0,0,0,0,0,0,0,0,0
36,129,1246,14282,7402,0,0,0,0,0,0,0,0,0,0,0
37,129,1138,15038,7638,0,0,0,0,0,0,0,0,0,0,0
38,129,1810,15710,7972,0,0,0,0,0,0,0,0,0,0,0
39,129,2222,15128,7910,0,0,0,0,0,0,0,0,0,0,0
40,129,2512,15096,8142,0,0,0,0,0,0,0,0,0,0,0
41,129,2488,14616,7886,0,0,0,0,0,0,0,0,0,0,0
42,129,2330,14566,7760,0,0,0,0,0,0,0,0,0,0,0
43,129,2222,14160,7812,0,0,0,0,0,0,0,0,0,0,0
44,129,2308,14714,7720,0,0,0,0,0,0,0,0,0,0,0
45,129,2114,14566,7246,0,0,0,0,0,0,0,0,0,0,0
46,129,1884,13942,7240,0,0,0,0,0,0,0,0,0,0,0
47,129,2256,13920,7386,0,0,0,0,0,0,0,0,0,0,0
48,129,2500,14706,7916,0,0,0,0,0,0,0,0,0,0,0
49,129,2320,14666,7746,0,0,0,0,0,0,0,0,0,0,0
50,129,2596,14414,7542,0,0,0,0,0,0,0,0,0,0,0
51,129,2350,14438,7308,0,0,0,0,0,0,0,0,0,0,0
52,129,2762,14624,7578,0,0,0,0,0,0,0,0,0,0,0
53,129,2778,14672,7656,0,0,0,0,0,0,0,0,0,0,0
54,129,2924,14450,7530,0,0,0,0,0,0,0,0,0,0,0
55,129,2800,14502,7502,0,0,0,0,0,0,0,0,0,0,0
56,129,2684,14494,7600,0,0,0,0,0,0,0,0,0,0,0
57,129,2658,14400,7452,0,0,0,0,0,0,0,0,0,0,0
58,129,2974,14428,7612,0,0,0,0,0,0,0,0,0,0,0
59,129,2696,14506,7586,0,0,0,0,0,0,0,0,0,0,0
60,129,2308,14298,7294,0,0,0,0,0,0,0,0,0,0,0
61,129,2368,14276,7354,0,0,0,0,0,0,0,0,0,0,0
62,129,2572,14638,7446,0,0,0,0,0,0,0,0,0,0,0
63,129,2394,14558,7332,0,0,0,0,0,0,0,0,0,0,0
64,129,2462,14696,7160,0,0,0,0,0,0,0,0,0,0,0
65,129,2318,14732,7344,0,0,0,0,0,0,0,0,0,0,0
66,129,2136,14512,7576,0,0,0,0,0,0,0,0,0,0,0
67,129,2522,14380,7026,0,0,0,0,0,0,0,0,0,0,0
68,129,2120,14780,7212,0,0,0,0,0,0,0,0,0,0,0
69,129,2142,14866,6946,0,0,0,0,0,0,0,0,0,0,0
70,129,2164,14580,6964,0,0,0,0,0,0,0,0,0,0,0
71,129,2414,14770,7170,0,0,0,0,0,0,0,0,0,0,0
72,129,2616,14688,7332,0,0,0,0,0,0,0,0,0,0,0
73,129,2278,14728,7122,0,0,0,0,0,0,0,0,0,0,0
74,129,2198,14552,6886,0,0,0,0,0,0,0,0,0,0,0
75,129,2476,14550,6978,0,0,0,0,0,0,0,0,0,0,0
76,129,2164,14798,7026,0,0,0,0,0,0,0,0,0,0,0
77,129,2618,14792,7276,0,0,0,0,0,0,0,0,0,0,0
78,129,2790,14816,7214,0,0,0,0,0,0,0,0,0,0,0
79,129,2872,14552,7194,0,0,0,0,0,0,0,0,0,0,0
80,129,2866,14610,7304,0,0,0,0,0,0,0,0,0,0,0
81,129,3498,14362,6906,0,0,0,0,0,0,0,0,0,0,0
82,129,2720,14976,6962,0,0,0,0,0,0,0,0,0,0,0
83,129,2300,15030,6754,0,0,0,0,0,0,0,0,0,0,0
84,129,2798,14486,7438,0,0,0,0,0,0,0,0,0,0,0
85,129,2760,15122,7142,0,0,0,0,0,0,0,0,0,0,0
86,129,2668,15004,6752,0,0,0,0,0,0,0,0,0,0,0
87,129,2460,14772,6872,0,0,0,0,0,0,0,0,0,0,0
88,129,2468,14776,7140,0,0,0,0,0,0,0,0,0,0,0
89,129,2506,14720,7256,0,0,0,0,0,0,0,0,0,0,0
90,129,2618,14920,7166,0,0,0,0,0,0,0,0,0,0,0
91,129,2614,15100,7218,0,0,0,0,0,0,0,0,0,0,0
92,129,2994,14882,7134,0,0,0,0,0,0,0,0,0,0,0
93,129,2738,14440,7006,0,0,0,0,0,0,0,0,0,0,0
94,129,2652,14336,7102,0,0,0,0,0,0,0,0,0,0,0
95,129,2712,14642,7104,0,0,0,0,0,0,0,0,0,0,0
96,129,2796,14714,7196,0,0,0,0,0,0,0,0,0,0,0
97,129,2718,14610,7058,0,0,0,0,0,0,0,0,0,0,0
98,129,2716,14830,7058,0,0,0,0,0,0,0,0,0,0,0
99,129,2348,14734,6770,0,0,0,0,0,0,0,0,0,0,0
100,129,2400,14760,7232,0,0,0,0,0,0,0,0,0,0,0
101,129,2756,15004,6964,0,0,0,0,0,0,0,0,0,0,0
102,129,2852,14650,7184,0,0,0,0,0,0,0,0,0,0,0
103,129,2688,14722,7108,0,0,0,0,0,0,0,0,0,0,0
104,129,2840,14846,7040,0,0,0,0,0,0,0,0,0,0,0
105,129,2760,14768,6972,0,0,0,0,0,0,0,0,0,0,0
106,129,2688,14690,7096,0,0,0,0,0,0,0,0,0,0,0
107,129,2704,14590,7046,0,0,0,0,0,0,0,0,0,0,0
108,129,2630,14682,6852,0,0,0,0,0,0,0,0,0,0,0
109,129,2612,14618,6958,0,0,0,0,0,0,0,0,0,0,0
110,129,2576,14744,6946,0,0,0,0,0,0,0,0,0,0,0
111,129,2590,14842,7030,0,0,0,0,0,0,0,0,0,0,0
112,129,2538,14860,6980,0,0,0,0,0,0,0,0,0,0,0
113,129,2476,14906,6856,0,0,0,0,0,0,0,0,0,0,0
114,129,2758,15078,7038,0,0,0,0,0,0,0,0,0,0,0
115,129,2644,14794,6792,0,0,0,0,0,0,0,0,0,0,0
116,129,2398,14814,6724,0,0,0,0,0,0,0,0,0,0,0
117,129,2406,14904,6694,0,0,0,0,0,0,0,0,0,0,0
118,129,2374,14784,6882,0,0,0,0,0,0,0,0,0,0,0
119,129,2470,14814,6610,0,0,0,0,0,0,0,0,0,0,0
120,129,2566,14698,6620,0,0,0,0,0,0,0,0,0,0,0
121,129,2462,14764,6890,0,0,0,0,0,0,0,0,0,0,0
122,129,2528,15016,6906,0,0,0,0,0,0,0,0,0,0,0
123,129,2756,14910,6800,0,0,0,0,0,0,0,0,0,0,0
124,129,2818,14862,6852,0,0,0,0,0,0,0,0,0,0,0
125,129,2752,14860,6866,0,0,0,0,0,0,0,0,0,0,0
126,129,2702,14726,6954,0,0,0,0,0,0,0,0,0,0,0
127,129,2520,14788,6874,0,0,0,0,0,0,0,0,0,0,0
128,129,2594,14734,6966,0,0,0,0,0,0,0,0,0,0,0
129,129,2644,14828,6830,0,0,0,0,0,0,0,0,0,0,0
130,129,2596,14808,6944,0,0,0,0,0,0,0,0,0,0,0
131,129,2582,14744,6822,0,0,0,0,0,0,0,0,0,0,0
132,129,2508,15120,6934,0,0,0,0,0,0,0,0,0,0,0
133,129,2606,14826,6812,0,0,0,0,0,0,0,0,0,0,0
134,129,2568,14854,6988,0,0,0,0,0,0,0,0,0,0,0
135,129,2560,15060,6722,0,0,0,0,0,0,0,0,0,0,0
136,129,2718,14540,6810,0,0,0,0,0,0,0,0,0,0,0
137,129,2444,14778,6776,0,0,0,0,0,0,0,0,0,0,0
138,129,2676,14778,6932,0,0,0,0,0,0,0,0,0,0,0
139,129,2962,14720,6730,0,0,0,0,0,0,0,0,0,0,0
140,129,2982,14900,6958,0,0,0,0,0,0,0,0,0,0,0
141,129,2724,14768,6766,0,0,0,0,0,0,0,0,0,0,0
142,129,2662,14724,6866,0,0,0,0,0,0,0,0,0,0,0
143,129,2802,14896,6902,0,0,0,0,0,0,0,0,0,0,0
144,129,3006,14602,7006,0,0,0,0,0,0,0,0,0,0,0
145,129,2726,14776,6886,0,0,0,0,0,0,0,0,0,0,0
146,129,2724,14878,7082,0,0,0,0,0,0,0,0,0,0,0
147,129,2646,14842,7104,0,0,0,0,0,0,0,0,0,0,0
148,129,2822,14750,7028,0,0,0,0,0,0,0,0,0,0,0
149,129,3114,14776,6938,0,0,0,0,0,0,0,0,0,0,0
150,129,2922,14796,6822,0,0,0,0,0,0,0,0,0,0,0
151,129,2736,14806,6992,0,0,0,0,0,0,0,0,0,0,0
152,129,2644,14538,7012,0,0,0,0,0,0,0,0,0,0,0
153,129,2562,14718,6842,0,0,0,0,0,0,0,0,0,0,0
154,129,2448,14982,6784,0,0,0,0,0,0,0,0,0,0,0
155,129,2578,14866,6836,0,0,0,0,0,0,0,0,0,0,0
156,129,2726,14816,6904,0,0,0,0,0,0,0,0,0,0,0
157,129,2664,14864,6908,0,0,0,0,0,0,0,0,0,0,0
158,129,2550,14870,6710,0,0,0,0,0,0,0,0,0,0,0
159,129,2714,14730,6792,0,0,0,0,0,0,0,0,0,0,0
160,129,2566,14968,6828,0,0,0,0,0,0,0,0,0,0,0
161,129,2748,14878,6866,0,0,0,0,0,0,0,0,0,0,0
162,129,2714,14778,6860,0,0,0,0,0,0,0,0,0,0,0
163,129,2762,14754,6818,0,0,0,0,0,0,0,0,0,0,0
164,129,2594,14840,7020,0,0,0,0,0,0,0,0,0,0,0
165,129,2702,14794,6910,0,0,0,0,0,0,0,0,0,0,0
166,129,2716,14834,6996,0,0,0,0,0,0,0,0,0,0,0
167,129,2672,14844,6914,0,0,0,0,0,0,0,0,0,0,0
168,129,2734,14972,6996,0,0,0,0,0,0,0,0,0,0,0
169,129,2304,14932,6808,0,0,0,0,0,0,0,0,0,0,0
170,129,2376,14748,6896,0,0,0,0,0,0,0,0,0,0,0
171,129,2570,15014,6808,0,0,0,0,0,0,0,0,0,0,0
172,129,2418,14772,6880,0,0,0,0,0,0,0,0,0,0,0
173,129,2354,14808,6830,0,0,0,0,0,0,0,0,0,0,0
174,129,2472,14844,6804,0,0,0,0,0,0,0,0,0,0,0
175,129,2412,14858,6816,0,0,0,0,0,0,0,0,0,0,0
176,129,2520,14914,6920,0,0,0,0,0,0,0,0,0,0,0
177,129,2570,14890,6876,0,0,0,0,0,0,0,0,0,0,0
178,129,2598,14938,7044,0,0,0,0,0,0,0,0,0,0,0
179,129,2492,14916,6812,0,0,0,0,0,0,0,0,0,0,0
180,129,2416,14836,6860,0,0,0,0,0,0,0,0,0,0,0
181,129,2304,15070,6562,0,0,0,0,0,0,0,0,0,0,0
182,129,2186,14820,6934,0,0,0,0,0,0,0,0,0,0,0
183,129,2290,14960,6736,0,0,0,0,0,0,0,0,0,0,0
184,129,2174,14946,6760,0,0,0,0,0,0,0,0,0,0,0
185,129,2168,14790,6518,0,0,0,0,0,0,0,0,0,0,0
186,129,2228,14936,6664,0,0,0,0,0,0,0,0,0,0,0
187,129,2174,14974,6602,0,0,0,0,0,0,0,0,0,0,0
188,129,2208,15102,6684,0,0,0,0,0,0,0,0,0,0,0
189,129,2178,15044,6714,0,0,0,0,0,0,0,0,0,0,0
190,129,2418,14870,6602,0,0,0,0,0,0,0,0,0,0,0
191,129,2304,15016,6622,0,0,0,0,0,0,0,0,0,0,0
192,129,2030,14842,6814,0,0,0,0,0,0,0,0,0,0,0
193,129,2126,15048,6660,0,0,0,0,0,0,0,0,0,0,0
194,129,2320,15112,6956,0,0,0,0,0,0,0,0,0,0,0
195,129,2370,15258,6266,0,0,0,0,0,0,0,0,0,0,0
196,129,2400,15190,6804,0,0,0,0,0,0,0,0,0,0,0
197,129,2462,15070,6570,0,0,0,0,0,0,0,0,0,0,0
198,129,2390,15124,6378,0,0,0,0,0,0,0,0,0,0,0
199,129,2050,15184,6462,0,0,0,0,0,0,0,0,0,0,0
200,129,2006,15168,6406,0,0,0,0,0,0,0,0,0,0,0
201,129,1994,15120,6280,0,0,0,0,0,0,0,0,0,0,0
202,129,2080,15026,6456,0,0,0,0,0,0,0,0,0,0,0
203,129,2082,15144,6326,0,0,0,0,0,0,0,0,0,0,0
204,129,2082,15436,6332,0,0,0,0,0,0,0,0,0,0,0
205,129,1868,15228,6098,0,0,0,0,0,0,0,0,0,0,0
206,129,1816,15324,6106,0,0,0,0,0,0,0,0,0,0,0
207,129,1828,15920,6300,0,0,0,0,0,0,0,0,0,0,0
208,129,2086,16106,6604,0,0,0,0,0,0,0,0,0,0,0
209,129,1758,15906,6060,0,0,0,0,0,0,0,0,0,0,0
210,129,1252,16290,5518,0,0,0,0,0,0,0,0,0,0,0
211,129,1662,16102,5556,0,0,0,0,0,0,0,0,0,0,0
212,129,1614,15670,5314,0,0,0,0,0,0,0,0,0,0,0
213,129,996,15750,4840,0,0,0,0,0,0,0,0,0,0,0
214,129,800,15970,4872,0,0,0,0,0,0,0,0,0,0,0
215,129,948,15862,4708,0,0,0,0,0,0,0,0,0,0,0
216,129,892,15876,4958,0,0,0,0,0,0,0,0,0,0,0
217,129,836,15694,4298,0,0,0,0,0,0,0,0,0,0,0
218,129,992,16114,4686,0,0,0,0,0,0,0,0,0,0,0
219,129,962,16088,4468,0,0,0,0,0,0,0,0,0,0,0
220,129,448,15832,3888,0,0,0,0,0,0,0,0,0,0,0
221,129,148,15218,3194,0,0,0,0,0,0,0,0,0,0,0
222,129,-56,15548,3458,0,0,0,0,0,0,0,0,0,0,0
223,129,164,15424,4046,0,0,0,0,0,0,0,0,0,0,0
224,129,284,15034,3650,0,0,0,0,0,0,0,0,0,0,0
225,129,342,15298,3054,0,0,0,0,0,0,0,0,0,0,0
226,129,210,15224,3320,0,0,0,0,0,0,0,0,0,0,0
227,129,700,15344,3464,0,0,0,0,0,0,0,0,0,0,0
228,129,904,15286,4142,0,0,0,0,0,0,0,0,0,0,0
229,129,464,15576,3566,0,0,0,0,0,0,0,0,0,0,0
230,129,718,15888,3632,0,0,0,0,0,0,0,0,0,0,0
231,129,744,15720,3536,0,0,0,0,0,0,0,0,0,0,0
232,129,710,15456,3728,0,0,0,0,0,0,0,0,0,0,0
233,129,548,15766,3650,0,0,0,0,0,0,0,0,0,0,0
234,129,926,15912,4004,0,0,0,0,0,0,0,0,0,0,0
235,129,1100,16444,3902,0,0,0,0,0,0,0,0,0,0,0
236,129,1082,16610,3704,0,0,0,0,0,0,0,0,0,0,0
237,129,1372,16632,4256,0,0,0,0,0,0,0,0,0,0,0
238,129,1228,16842,3994,0,0,0,0,0,0,0,0,0,0,0
239,129,1026,16924,3612,0,0,0,0,0,0,0,0,0,0,0
240,129,960,16672,3714,0,0,0,0,0,0,0,0,0,0,0
241,129,996,16394,3818,0,0,0,0,0,0,0,0,0,0,0
242,129,1054,16180,3682,0,0,0,0,0,0,0,0,0,0,0
243,129,944,16108,3394,0,0,0,0,0,0,0,0,0,0,0
244,129,940,15652,3522,0,0,0,0,0,0,0,0,0,0,0
245,129,996,15610,3460,0,0,0,0,0,0,0,0,0,0,0
246,129,1284,16008,3774,0,0,0,0,0,0,0,0,0,0,0
247,129,1372,16270,4158,0,0,0,0,0,0,0,0,0,0,0
248,129,1098,16602,3494,0,0,0,0,0,0,0,0,0,0,0
249,129,1168,16788,3738,0,0,0,0,0,0,0,0,0,0,0
250,129,1244,16676,3896,0,0,0,0,0,0,0,0,0,0,0
251,129,1374,16562,3602,0,0,0,0,0,0,0,0,0,0,0
252,129,1272,16414,3412,0,0,0,0,0,0,0,0,0,0,0
253,129,1276,16222,3408,0,0,0,0,0,0,0,0,0,0,0
254,129,1068,16316,3698,0,0,0,0,0,0,0,0,0,0,0
255,129,1096,16076,3324,0,0,0,0,0,0,0,0,0,0,0
256,129,1164,15896,3160,0,0,0,0,0,0,0,0,0,0,0
257,129,1176,15894,3370,0,0,0,0,0,0,0,0,0,0,0
258,129,1134,15950,3610,0,0,0,0,0,0,0,0,0,0,0
259,129,1224,16078,3540,0,0,0,0,0,0,0,0,0,0,0
260,129,1286,16226,3474,0,0,0,0,0,0,0,0,0,0,0
261,129,1232,16166,3458,0,0,0,0,0,0,0,0,0,0,0
262,129,1126,16144,3328,0,0,0,0,0,0,0,0,0,0,0
263,129,1230,16108,3512,0,0,0,0,0,0,0,0,0,0,0
264,129,1220,16202,3452,0,0,0,0,0,0,0,0,0,0,0
265,129,1356,16058,3484,0,0,0,0,0,0,0,0,0,0,0
266,129,1328,16098,3346,0,0,0,0,0,0,0,0,0,0,0
267,129,1128,16074,3498,0,0,0,0,0,0,0,0,0,0,0
268,129,1128,16198,3448,0,0,0,0,0,0,0,0,0,0,0
269,129,978,16100,3446,0,0,0,0,0,0,0,0,0,0,0
270,129,1220,16106,3546,0,0,0,0,0,0,0,0,0,0,0
271,129,1394,16132,3590,0,0,0,0,0,0,0,0,0,0,0
272,129,1558,16140,3442,0,0,0,0,0,0,0,0,0,0,0
273,129,1500,16184,3402,0,0,0,0,0,0,0,0,0,0,0
274,129,1462,16238,3556,0,0,0,0,0,0,0,0,0,0,0
275,129,1430,16278,3652,0,0,0,0,0,0,0,0,0,0,0
276,129,1562,16140,3540,0,0,0,0,0,0,0,0,0,0,0
277,129,1454,16142,3470,0,0,0,0,0,0,0,0,0,0,0
278,129,1470,16168,3364,0,0,0,0,0,0,0,0,0,0,0
279,129,1568,16128,3568,0,0,0,0,0,0,0,0,0,0,0
280,129,1470,16014,3600,0,0,0,0,0,0,0,0,0,0,0
281,129,1360,16140,3454,0,0,0,0,0,0,0,0,0,0,0
282,129,1452,15850,3334,0,0,0,0,0,0,0,0,0,0,0
283,129,1434,15946,3562,0,0,0,0,0,0,0,0,0,0,0
284,129,1234,16132,3492,0,0,0,0,0,0,0,0,0,0,0
285,129,1420,16158,3556,0,0,0,0,0,0,0,0,0,0,0
286,129,1550,16062,3572,0,0,0,0,0,0,0,0,0,0,0
287,129,1524,16170,3738,0,0,0,0,0,0,0,0,0,0,0
288,129,1638,16162,3606,0,0,0,0,0,0,0,0,0,0,0
289,129,1464,16122,3504,0,0,0,0,0,0,0,0,0,0,0
290,129,1348,16088,3526,0,0,0,0,0,0,0,0,0,0,0
291,129,1230,16012,3358,0,0,0,0,0,0,0,0,0,0,0
292,129,1350,16018,3568,0,0,0,0,0,0,0,0,0,0,0
293,129,1436,16076,3672,0,0,0,0,0,0,0,0,0,0,0
294,129,1328,16036,3656,0,0,0,0,0,0,0,0,0,0,0
295,129,1332,16216,3628,0,0,0,0,0,0,0,0,0,0,0
296,129,1390,16010,3656,0,0,0,0,0,0,0,0,0,0,0
297,129,1476,16236,3506,0,0,0,0,0,0,0,0,0,0,0
298,129,1460,16380,3598,0,0,0,0,0,0,0,0,0,0,0
299,129,1408,16242,3620,0,0,0,0,0,0,0,0,0,0,0
300,129,1512,15956,3436,0,0,0,0,0,0,0,0,0,0,0
301,129,1666,15950,3602,0,0,0,0,0,0,0,0,0,0,0
302,129,1628,15964,3520,0,0,0,0,0,0,0,0,0,0,0
303,129,1392,15920,3564,0,0,0,0,0,0,0,0,0,0,0
304,129,1318,16060,3524,0,0,0,0,0,0,0,0,0,0,0
305,129,1492,16094,3710,0,0,0,0,0,0,0,0,0,0,0
306,129,1342,16298,3730,0,0,0,0,0,0,0,0,0,0,0
307,129,1242,16270,3580,0,0,0,0,0,0,0,0,0,0,0
308,129,1474,16110,3684,0,0,0,0,0,0,0,0,0,0,0
309,129,1376,16166,3668,0,0,0,0,0,0,0,0,0,0,0
310,129,1270,16174,3612,0,0,0,0,0,0,0,0,0,0,0
311,129,1306,16090,3480,0,0,0,0,0,0,0,0,0,0,0
312,129,1296,16112,3554,0,0,0,0,0,0,0,0,0,0,0
313,129,1374,16060,3582,0,0,0,0,0,0,0,0,0,0,0
314,129,1352,16046,3626,0,0,0,0,0,0,0,0,0,0,0
315,129,1198,16176,3660,0,0,0,0,0,0,0,0,0,0,0
316,129,1246,16168,3674,0,0,0,0,0,0,0,0,0,0,0
317,129,1178,16092,3522,0,0,0,0,0,0,0,0,0,0,0
318,129,1180,16202,3568,0,0,0,0,0,0,0,0,0,0,0
319,129,1246,16016,3580,0,0,0,0,0,0,0,0,0,0,0
320,129,1464,16180,3650,0,0,0,0,0,0,0,0,0,0,0
321,129,1370,16222,3746,0,0,0,0,0,0,0,0,0,0,0
322,129,1256,16248,3726,0,0,0,0,0,0,0,0,0,0,0
323,129,1244,15986,3448,0,0,0,0,0,0,0,0,0,0,0
324,129,1180,16066,3582,0,0,0,0,0,0,0,0,0,0,0
325,129,1302,15972,3814,0,0,0,0,0,0,0,0,0,0,0
326,129,1430,16012,3730,0,0,0,0,0,0,0,0,0,0,0
327,129,1448,16004,3722,0,0,0,0,0,0,0,0,0,0,0
328,129,1456,16034,3726,0,0,0,0,0,0,0,0,0,0,0
329,129,1562,16032,3712,0,0,0,0,0,0,0,0,0,0,0
330,129,1546,16026,3888,0,0,0,0,0,0,0,0,0,0,0
331,129,1444,16034,3868,0,0,0,0,0,0,0,0,0,0,0
332,129,1262,16118,3700,0,0,0,0,0,0,0,0,0,0,0
333,129,1358,16104,3586,0,0,0,0,0,0,0,0,0,0,0
334,129,1266,16008,3584,0,0,0,0,0,0,0,0,0,0,0
335,129,1358,16052,3644,0,0,0,0,0,0,0,0,0,0,0
336,129,1364,16200,3778,0,0,0,0,0,0,0,0,0,0,0
337,129,1494,16308,3808,0,0,0,0,0,0,0,0,0,0,0
338,129,1386,16286,3602,0,0,0,0,0,0,0,0,0,0,0
339,129,1202,16046,3684,0,0,0,0,0,0,0,0,0,0,0
340,129,1154,16070,3622,0,0,0,0,0,0,0,0,0,0,0
341,129,1282,16124,3738,0,0,0,0,0,0,0,0,0,0,0
342,129,1246,16076,3692,0,0,0,0,0,0,0,0,0,0,0
343,129,1192,15972,3654,0,0,0,0,0,0,0,0,0,0,0
344,129,1232,15970,3626,0,0,0,0,0,0,0,0,0,0,0
345,129,1230,15978,3594,0,0,0,0,0,0,0,0,0,0,0
346,129,1222,16054,3612,0,0,0,0,0,0,0,0,0,0,0
347,129,1420,16178,3724,0,0,0,0,0,0,0,0,0,0,0
348,129,1442,16330,3842,0,0,0,0,0,0,0,0,0,0,0
349,129,1398,16010,3708,0,0,0,0,0,0,0,0,0,0,0
350,129,1410,16174,4034,0,0,0,0,0,0,0,0,0,0,0
351,129,1250,16078,3756,0,0,0,0,0,0,0,0,0,0,0
352,129,1364,16024,3792,0,0,0,0,0,0,0,0,0,0,0
353,129,1208,16152,3780,0,0,0,0,0,0,0,0,0,0,0
354,129,1422,16042,3938,0,0,0,0,0,0,0,0,0,0,0
355,129,1428,16108,3710,0,0,0,0,0,0,0,0,0,0,0
356,129,1224,16084,3922,0,0,0,0,0,0,0,0,0,0,0
357,129,1242,16026,3700,0,0,0,0,0,0,0,0,0,0,0
358,129,1400,15986,3884,0,0,0,0,0,0,0,0,0,0,0
359,129,1286,16098,3784,0,0,0,0,0,0,0,0,0,0,0
360,129,1128,16128,3794,0,0,0,0,0,0,0,0,0,0,0
361,129,1306,15870,3734,0,0,0,0,0,0,0,0,0,0,0
362,129,1398,16042,3906,0,0,0,0,0,0,0,0,0,0,0
363,129,1510,16126,3826,0,0,0,0,0,0,0,0,0,0,0
364,129,1398,16076,3738,0,0,0,0,0,0,0,0,0,0,0
365,129,1218,15944,3802,0,0,0,0,0,0,0,0,0,0,0
366,129,1112,16062,3724,0,0,0,0,0,0,0,0,0,0,0
367,129,1238,16180,3934,0,0,0,0,0,0,0,0,0,0,0
368,129,1328,16158,3842,0,0,0,0,0,0,0,0,0,0,0
369,129,1212,16178,3762,0,0,0,0,0,0,0,0,0,0,0
370,129,1252,15926,3824,0,0,0,0,0,0,0,0,0,0,0
371,129,1226,16078,3864,0,0,0,0,0,0,0,0,0,0,0
372,129,1296,15926,3960,0,0,0,0,0,0,0,0,0,0,0
373,129,1510,16054,4076,0,0,0,0,0,0,0,0,0,0,0
374,129,1444,16022,3934,0,0,0,0,0,0,0,0,0,0,0
375,129,1304,16018,4018,0,0,0,0,0,0,0,0,0,0,0
376,129,1334,16000,3768,0,0,0,0,0,0,0,0,0,0,0
377,129,1338,15966,3838,0,0,0,0,0,0,0,0,0,0,0
378,129,1282,15906,3948,0,0,0,0,0,0,0,0,0,0,0
379,129,1334,15986,4056,0,0,0,0,0,0,0,0,0,0,0
380,129,1346,16064,3922,0,0,0,0,0,0,0,0,0,0,0
381,129,1382,16044,4006,0,0,0,0,0,0,0,0,0,0,0
382,129,1402,16066,3848,0,0,0,0,0,0,0,0,0,0,0
383,129,1230,16024,4056,0,0,0,0,0,0,0,0,0,0,0
384,129,1152,16128,4002,0,0,0,0,0,0,0,0,0,0,0
385,129,1306,16046,3954,0,0,0,0,0,0,0,0,0,0,0
386,129,1290,15940,4000,0,0,0,0,0,0,0,0,0,0,0
387,129,1328,15998,4112,0,0,0,0,0,0,0,0,0,0,0
388,129,1496,16016,4140,0,0,0,0,0,0,0,0,0,0,0
389,129,1422,16100,4022,0,0,0,0,0,0,0,0,0,0,0
390,129,1288,16178,4036,0,0,0,0,0,0,0,0,0,0,0
391,129,1268,15946,4140,0,0,0,0,0,0,0,0,0,0,0
392,129,1182,15952,3950,0,0,0,0,0,0,0,0,0,0,0
393,129,1220,15838,3994,0,0,0,0,0,0,0,0,0,0,0
394,129,1286,15950,4092,0,0,0,0,0,0,0,0,0,0,0
395,129,1272,15984,4176,0,0,0,0,0,0,0,0,0,0,0
396,129,1416,15976,3862,0,0,0,0,0,0,0,0,0,0,0
397,129,1406,16002,3974,0,0,0,0,0,0,0,0,0,0,0
398,129,1246,16068,4190,0,0,0,0,0,0,0,0,0,0,0
399,129,1312,16064,4172,0,0,0,0,0,0,0,0,0,0,0
400,129,1314,15800,4016,0,0,0,0,0,0,0,0,0,0,0
401,129,1244,15892,4110,0,0,0,0,0,0,0,0,0,0,0
402,129,1234,16012,4148,0,0,0,0,0,0,0,0,0,0,0
403,129,1284,15990,3998,0,0,0,0,0,0,0,0,0,0,0
404,129,1298,15910,4078,0,0,0,0,0,0,0,0,0,0,0
405,129,1232,16072,4114,0,0,0,0,0,0,0,0,0,0,0
406,129,1288,16032,3902,0,0,0,0,0,0,0,0,0,0,0
407,129,1168,16044,4102,0,0,0,0,0,0,0,0,0,0,0
408,129,1220,16014,4114,0,0,0,0,0,0,0,0,0,0,0
409,129,1088,16022,3970,0,0,0,0,0,0,0,0,0,0,0
410,129,1304,15940,4060,0,0,0,0,0,0,0,0,0,0,0
411,129,1328,15956,4044,0,0,0,0,0,0,0,0,0,0,0
412,129,1174,15990,4248,0,0,0,0,0,0,0,0,0,0,0
413,129,1304,15954,4038,0,0,0,0,0,0,0,0,0,0,0
414,129,1360,15980,4052,0,0,0,0,0,0,0,0,0,0,0
415,129,1480,15894,4124,0,0,0,0,0,0,0,0,0,0,0
416,129,1436,15900,4108,0,0,0,0,0,0,0,0,0,0,0
417,129,1334,15896,4042,0,0,0,0,0,0,0,0,0,0,0
418,129,1322,15892,4096,0,0,0,0,0,0,0,0,0,0,0
419,129,1324,15922,4070,0,0,0,0,0,0,0,0,0,0,0
420,129,1300,16040,4032,0,0,0,0,0,0,0,0,0,0,0
421,129,1356,15966,4138,0,0,0,0,0,0,0,0,0,0,0
422,129,1340,16036,4086,0,0,0,0,0,0,0,0,0,0,0
423,129,1282,15946,4116,0,0,0,0,0,0,0,0,0,0,0
424,129,1292,16176,3952,0,0,0,0,0,0,0,0,0,0,0
425,129,1338,16058,4142,0,0,0,0,0,0,0,0,0,0,0
426,129,1316,15914,3996,0,0,0,0,0,0,0,0,0,0,0
427,129,1242,16014,3916,0,0,0,0,0,0,0,0,0,0,0
428,129,1224,15968,4224,0,0,0,0,0,0,0,0,0,0,0
429,129,1260,16160,4058,0,0,0,0,0,0,0,0,0,0,0
430,129,1268,15974,4072,0,0,0,0,0,0,0,0,0,0,0
431,129,1378,16032,4186,0,0,0,0,0,0,0,0,0,0,0
432,129,1262,15966,4074,0,0,0,0,0,0,0,0,0,0,0
433,129,1310,16070,4168,0,0,0,0,0,0,0,0,0,0,0
434,129,1346,15956,4092,0,0,0,0,0,0,0,0,0,0,0
435,129,1510,16044,4276,0,0,0,0,0,0,0,0,0,0,0
436,129,1500,15856,4174,0,0,0,0,0,0,0,0,0,0,0
437,129,1252,15876,4152,0,0,0,0,0,0,0,0,0,0,0
438,129,1384,15908,4160,0,0,0,0,0,0,0,0,0,0,0
439,129,1448,16068,3984,0,0,0,0,0,0,0,0,0,0,0
440,129,1354,16032,4232,0,0,0,0,0,0,0,0,0,0,0
441,129,1308,15992,4044,0,0,0,0,0,0,0,0,0,0,0
442,129,1192,15988,4180,0,0,0,0,0,0,0,0,0,0,0
443,129,1214,16004,4000,0,0,0,0,0,0,0,0,0,0,0
444,129,1194,16004,3950,0,0,0,0,0,0,0,0,0,0,0
445,129,1210,15898,4124,0,0,0,0,0,0,0,0,0,0,0
446,129,1234,16062,4062,0,0,0,0,0,0,0,0,0,0,0
447,129,1318,15998,4098,0,0,0,0,0,0,0,0,0,0,0
448,129,1192,16034,4258,0,0,0,0,0,0,0,0,0,0,0
449,129,1124,16042,4082,0,0,0,0,0,0,0,0,0,0,0
450,129,1214,15978,4192,0,0,0,0,0,0,0,0,0,0,0
451,129,1292,15948,4182,0,0,0,0,0,0,0,0,0,0,0
452,129,1376,15754,4246,0,0,0,0,0,0,0,0,0,0,0
453,129,1304,15908,3992,0,0,0,0,0,0,0,0,0,0,0
454,129,1112,15830,4264,0,0,0,0,0,0,0,0,0,0,0
455,129,1310,15934,4090,0,0,0,0,0,0,0,0,0,0,0
456,129,1314,15912,4292,0,0,0,0,0,0,0,0,0,0,0
457,129,1330,15966,4270,0,0,0,0,0,0,0,0,0,0,0
458,129,1206,15898,4300,0,0,0,0,0,0,0,0,0,0,0
459,129,1180,16016,4176,0,0,0,0,0,0,0,0,0,0,0
460,129,1148,15858,4328,0,0,0,0,0,0,0,0,0,0,0
461,129,1114,15862,4096,0,0,0,0,0,0,0,0,0,0,0
462,129,1276,15878,4170,0,0,0,0,0,0,0,0,0,0,0
463,129,1438,15872,4262,0,0,0,0,0,0,0,0,0,0,0
464,129,1306,16086,4138,0,0,0,0,0,0,0,0,0,0,0
465,129,1156,16068,4234,0,0,0,0,0,0,0,0,0,0,0
466,129,1154,16088,4258,0,0,0,0,0,0,0,0,0,0,0
467,129,1198,16030,4030,0,0,0,0,0,0,0,0,0,0,0
468,129,1316,15998,4062,0,0,0,0,0,0,0,0,0,0,0
469,129,1150,15960,4048,0,0,0,0,0,0,0,0,0,0,0
470,129,996,15930,4084,0,0,0,0,0,0,0,0,0,0,0
471,129,1158,15924,3970,0,0,0,0,0,0,0,0,0,0,0
472,129,1206,15994,4052,0,0,0,0,0,0,0,0,0,0,0
473,129,1138,15982,4068,0,0,0,0,0,0,0,0,0,0,0
474,129,1280,16094,4234,0,0,0,0,0,0,0,0,0,0,0
475,129,1206,15998,4048,0,0,0,0,0,0,0,0,0,0,0
476,129,1172,15908,4218,0,0,0,0,0,0,0,0,0,0,0
477,129,1034,15980,4020,0,0,0,0,0,0,0,0,0,0,0
478,129,1094,15980,4072,0,0,0,0,0,0,0,0,0,0,0
479,129,1240,16074,4036,0,0,0,0,0,0,0,0,0,0,0
480,129,1252,16144,4068,0,0,0,0,0,0,0,0,0,0,0
481,129,978,15984,4116,0,0,0,0,0,0,0,0,0,0,0
482,129,1030,15938,4162,0,0,0,0,0,0,0,0,0,0,0
483,129,1080,16014,4072,0,0,0,0,0,0,0,0,0,0,0
484,129,1100,16042,4206,0,0,0,0,0,0,0,0,0,0,0
485,129,1238,16134,4084,0,0,0,0,0,0,0,0,0,0,0
486,129,1144,15728,4132,0,0,0,0,0,0,0,0,0,0,0
487,129,1224,16032,4076,0,0,0,0,0,0,0,0,0,0,0
488,129,1116,16110,4070,0,0,0,0,0,0,0,0,0,0,0
489,129,1122,16092,4136,0,0,0,0,0,0,0,0,0,0,0
490,129,1064,16082,4198,0,0,0,0,0,0,0,0,0,0,0
491,129,1072,16018,4088,0,0,0,0,0,0,0,0,0,0,0
492,129,1106,16060,4102,0,0,0,0,0,0,0,0,0,0,0
493,129,1048,16086,4038,0,0,0,0,0,0,0,0,0,0,0
494,129,1004,16034,4056,0,0,0,0,0,0,0,0,0,0,0
495,129,1158,16030,4028,0,0,0,0,0,0,0,0,0,0,0
496,129,1190,15856,4082,0,0,0,0,0,0,0,0,0,0,0
497,129,1028,15998,4102,0,0,0,0,0,0,0,0,0,0,0
498,129,1096,16066,4158,0,0,0,0,0,0,0,0,0,0,0
499,129,1122,15970,4196,0,0,0,0,0,0,0,0,0,0,0
500,129,1292,15882,4660,0,0,0,0,0,0,0,0,0,0,0
501,129,1272,15884,4238,0,0,0,0,0,0,0,0,0,0,0
502,129,1084,15928,4084,0,0,0,0,0,0,0,0,0,0,0
503,129,1140,15744,4478,0,0,0,0,0,0,0,0,0,0,0
504,129,1320,15560,4194,0,0,0,0,0,0,0,0,0,0,0
505,129,1224,15792,4198,0,0,0,0,0,0,0,0,0,0,0
506,129,1358,15696,4380,0,0,0,0,0,0,0,0,0,0,0
507,129,1158,16098,4204,0,0,0,0,0,0,0,0,0,0,0
508,129,1084,16086,4634,0,0,0,0,0,0,0,0,0,0,0
509,129,1148,15968,5194,0,0,0,0,0,0,0,0,0,0,0
510,129,1162,16124,5156,0,0,0,0,0,0,0,0,0,0,0
511,129,1154,16408,5014,0,0,0,0,0,0,0,0,0,0,0
512,129,1064,15776,5856,0,0,0,0,0,0,0,0,0,0,0
513,129,1236,15900,5390,0,0,0,0,0,0,0,0,0,0,0
514,129,574,16646,5238,0,0,0,0,0,0,0,0,0,0,0
515,129,936,16230,5318,0,0,0,0,0,0,0,0,0,0,0
516,129,1030,16340,5182,0,0,0,0,0,0,0,0,0,0,0
517,129,1084,16400,5830,0,0,0,0,0,0,0,0,0,0,0
518,129,860,16052,6558,0,0,0,0,0,0,0,0,0,0,0
519,129,636,15890,6320,0,0,0,0,0,0,0,0,0,0,0
520,129,802,15592,6178,0,0,0,0,0,0,0,0,0,0,0
521,129,1092,16398,6772,0,0,0,0,0,0,0,0,0,0,0
522,129,640,15448,6510,0,0,0,0,0,0,0,0,0,0,0
523,129,670,16064,6528,0,0,0,0,0,0,0,0,0,0,0
524,129,1242,15526,7232,0,0,0,0,0,0,0,0,0,0,0
525,129,1344,14658,7640,0,0,0,0,0,0,0,0,0,0,0
526,129,1298,14710,8010,0,0,0,0,0,0,0,0,0,0,0
527,129,1130,14754,7932,0,0,0,0,0,0,0,0,0,0,0
528,129,1464,14384,8186,0,0,0,0,0,0,0,0,0,0,0
529,129,1474,14312,8620,0,0,0,0,0,0,0,0,0,0,0
530,129,860,14248,9160,0,0,0,0,0,0,0,0,0,0,0
531,129,1240,15240,9132,0,0,0,0,0,0,0,0,0,0,0
532,129,1378,14350,9528,0,0,0,0,0,0,0,0,0,0,0
533,129,1512,13734,9578,0,0,0,0,0,0,0,0,0,0,0
534,129,1218,13706,10116,0,0,0,0,0,0,0,0,0,0,0
535,129,1718,12958,10212,0,0,0,0,0,0,0,0,0,0,0
536,129,1898,12672,10988,0,0,0,0,0,0,0,0,0,0,0
537,129,2020,12402,10696,0,0,0,0,0,0,0,0,0,0,0
538,129,1924,12138,11340,0,0,0,0,0,0,0,0,0,0,0
539,129,2142,11928,11588,0,0,0,0,0,0,0,0,0,0,0
540,129,2182,11524,11552,0,0,0,0,0,0,0,0,0,0,0
541,129,2290,10544,11540,0,0,0,0,0,0,0,0,0,0,0
542,129,2272,10426,12044,0,0,0,0,0,0,0,0,0,0,0
543,129,2376,10142,12232,0,0,0,0,0,0,0,0,0,0,0
544,129,2304,10192,12998,0,0,0,0,0,0,0,0,0,0,0
545,129,2066,9372,12838,0,0,0,0,0,0,0,0,0,0,0
546,129,1804,9340,12878,0,0,0,0,0,0,0,0,0,0,0
547,129,2062,8702,13176,0,0,0,0,0,0,0,0,0,0,0
548,129,2058,9270,13730,0,0,0,0,0,0,0,0,0,0,0
549,129,2282,8696,13882,0,0,0,0,0,0,0,0,0,0,0
550,129,2144,8090,13830,0,0,0,0,0,0,0,0,0,0,0
551,129,1652,8612,14080,0,0,0,0,0,0,0,0,0,0,0
552,129,1908,8074,14486,0,0,0,0,0,0,0,0,0,0,0
553,129,2192,7124,13976,0,0,0,0,0,0,0,0,0,0,0
554,129,2982,6918,14110,0,0,0,0,0,0,0,0,0,0,0
555,129,3796,6550,14474,0,0,0,0,0,0,0,0,0,0,0
556,129,3754,6776,14432,0,0,0,0,0,0,0,0,0,0,0
557,129,4078,6128,14182,0,0,0,0,0,0,0,0,0,0,0
558,129,4304,5942,14654,0,0,0,0,0,0,0,0,0,0,0
559,129,4550,6068,14846,0,0,0,0,0,0,0,0,0,0,0
560,129,4892,5584,14848,0,0,0,0,0,0,0,0,0,0,0
561,129,5128,4880,14562,0,0,0,0,0,0,0,0,0,0,0
562,129,5058,4728,14774,0,0,0,0,0,0,0,0,0,0,0
563,129,5108,4220,14624,0,0,0,0,0,0,0,0,0,0,0
564,129,5220,3802,15004,0,0,0,0,0,0,0,0,0,0,0
565,129,5310,3740,15244,0,0,0,0,0,0,0,0,0,0,0
566,129,5022,3892,15066,0,0,0,0,0,0,0,0,0,0,0
567,129,5056,3702,15100,0,0,0,0,0,0,0,0,0,0,0
568,129,5010,3160,15402,0,0,0,0,0,0,0,0,0,0,0
569,129,4892,2904,15554,0,0,0,0,0,0,0,0,0,0,0
570,129,4820,2502,15114,0,0,0,0,0,0,0,0,0,0,0
571,129,4960,2146,15018,0,0,0,0,0,0,0,0,0,0,0
572,129,5158,1850,15376,0,0,0,0,0,0,0,0,0,0,0
573,129,4952,1668,14990,0,0,0,0,0,0,0,0,0,0,0
574,129,5306,1620,15196,0,0,0,0,0,0,0,0,0,0,0
575,129,5278,1584,15110,0,0,0,0,0,0,0,0,0,0,0
576,129,5596,1248,15614,0,0,0,0,0,0,0,0,0,0,0
577,129,5200,752,15054,0,0,0,0,0,0,0,0,0,0,0
578,129,5100,418,15004,0,0,0,0,0,0,0,0,0,0,0
579,129,5326,292,14806,0,0,0,0,0,0,0,0,0,0,0
580,129,5704,160,15110,0,0,0,0,0,0,0,0,0,0,0
581,129,5372,308,14860,0,0,0,0,0,0,0,0,0,0,0
582,129,5630,158,15028,0,0,0,0,0,0,0,0,0,0,0
583,129,5928,-354,15246,0,0,0,0,0,0,0,0,0,0,0
584,129,5866,-370,15058,0,0,0,0,0,0,0,0,0,0,0
585,129,6000,-788,15234,0,0,0,0,0,0,0,0,0,0,0
586,129,5580,-428,15064,0,0,0,0,0,0,0,0,0,0,0
587,129,5640,-892,14824,0,0,0,0,0,0,0,0,0,0,0
588,129,5982,-1128,15026,0,0,0,0,0,0,0,0,0,0,0
589,129,5904,-984,14726,0,0,0,0,0,0,0,0,0,0,0
590,129,5678,-1210,15264,0,0,0,0,0,0,0,0,0,0,0
591,129,6044,-1154,14714,0,0,0,0,0,0,0,0,0,0,0
592,129,6222,-1188,15454,0,0,0,0,0,0,0,0,0,0,0
593,129,5726,-1076,14622,0,0,0,0,0,0,0,0,0,0,0
594,129,5966,-1390,14812,0,0,0,0,0,0,0,0,0,0,0
595,129,5974,-1442,14970,0,0,0,0,0,0,0,0,0,0,0
596,129,5886,-1528,15158,0,0,0,0,0,0,0,0,0,0,0
597,129,5948,-1902,14662,0,0,0,0,0,0,0,0,0,0,0
598,129,6274,-1802,15024,0,0,0,0,0,0,0,0,0,0,0
599,129,6240,-1772,15276,0,0,0,0,0,0,0,0,0,0,0
600,129,5968,-1454,14714,0,0,0,0,0,0,0,0,0,0,0
601,129,5946,-1548,14518,0,0,0,0,0,0,0,0,0,0,0
602,129,6204,-1718,14690,0,0,0,0,0,0,0,0,0,0,0
603,129,5810,-2008,14386,0,0,0,0,0,0,0,0,0,0,0
604,129,6258,-2080,14874,0,0,0,0,0,0,0,0,0,0,0
605,129,6500,-1870,14668,0,0,0,0,0,0,0,0,0,0,0
606,129,6720,-1442,14968,0,0,0,0,0,0,0,0,0,0,0
607,129,6420,-1724,14672,0,0,0,0,0,0,0,0,0,0,0
608,129,6672,-2106,14984,0,0,0,0,0,0,0,0,0,0,0
609,129,6630,-2078,14498,0,0,0,0,0,0,0,0,0,0,0
610,129,6694,-1868,14746,0,0,0,0,0,0,0,0,0,0,0
611,129,6566,-1952,14336,0,0,0,0,0,0,0,0,0,0,0
612,129,6646,-2194,14452,0,0,0,0,0,0,0,0,0,0,0
613,129,7014,-1916,14954,0,0,0,0,0,0,0,0,0,0,0
614,129,7046,-1750,15214,0,0,0,0,0,0,0,0,0,0,0
615,129,6940,-2090,14838,0,0,0,0,0,0,0,0,0,0,0
616,129,7074,-2040,15024,0,0,0,0,0,0,0,0,0,0,0
617,129,6836,-2088,14678,0,0,0,0,0,0,0,0,0,0,0
618,129,6818,-1748,15032,0,0,0,0,0,0,0,0,0,0,0
619,129,6948,-1904,14700,0,0,0,0,0,0,0,0,0,0,0
620,129,6692,-1822,14800,0,0,0,0,0,0,0,0,0,0,0
621,129,6598,-2014,14488,0,0,0,0,0,0,0,0,0,0,0
622,129,6596,-2190,14922,0,0,0,0,0,0,0,0,0,0,0
623,129,6590,-1986,14976,0,0,0,0,0,0,0,0,0,0,0
624,129,6344,-1976,14872,0,0,0,0,0,0,0,0,0,0,0
625,129,6308,-1976,14440,0,0,0,0,0,0,0,0,0,0,0
626,129,6434,-1826,14634,0,0,0,0,0,0,0,0,0,0,0
627,129,6528,-1872,14674,0,0,0,0,0,0,0,0,0,0,0
628,129,6474,-1962,15084,0,0,0,0,0,0,0,0,0,0,0
629,129,6660,-1696,14368,0,0,0,0,0,0,0,0,0,0,0
630,129,6616,-1584,15000,0,0,0,0,0,0,0,0,0,0,0
631,129,6530,-1956,14892,0,0,0,0,0,0,0,0,0,0,0
632,129,6680,-1676,14994,0,0,0,0,0,0,0,0,0,0,0
633,129,6656,-1486,14748,0,0,0,0,0,0,0,0,0,0,0
634,129,7016,-1462,14802,0,0,0,0,0,0,0,0,0,0,0
635,129,6992,-1332,14716,0,0,0,0,0,0,0,0,0,0,0
636,129,6962,-1406,14652,0,0,0,0,0,0,0,0,0,0,0
637,129,6878,-1772,14422,0,0,0,0,0,0,0,0,0,0,0
638,129,6918,-1546,14864,0,0,0,0,0,0,0,0,0,0,0
639,129,6918,-1746,14810,0,0,0,0,0,0,0,0,0,0,0
640,129,6726,-1456,14988,0,0,0,0,0,0,0,0,0,0,0
641,129,6578,-1622,14840,0,0,0,0,0,0,0,0,0,0,0
642,129,6494,-1450,14780,0,0,0,0,0,0,0,0,0,0,0
643,129,6836,-1392,14858,0,0,0,0,0,0,0,0,0,0,0
644,129,6922,-1564,15036,0,0,0,0,0,0,0,0,0,0,0
645,129,6690,-1618,14978,0,0,0,0,0,0,0,0,0,0,0
646,129,6676,-1556,14960,0,0,0,0,0,0,0,0,0,0,0
647,129,6708,-1522,15010,0,0,0,0,0,0,0,0,0,0,0
648,129,6612,-1574,14896,0,0,0,0,0,0,0,0,0,0,0
649,129,6678,-1390,14964,0,0,0,0,0,0,0,0,0,0,0
650,129,6692,-1356,15048,0,0,0,0,0,0,0,0,0,0,0
651,129,6578,-1662,14888,0,0,0,0,0,0,0,0,0,0,0
652,129,6466,-1548,14716,0,0,0,0,0,0,0,0,0,0,0
653,129,6530,-1434,14420,0,0,0,0,0,0,0,0,0,0,0
654,129,6756,-1438,14944,0,0,0,0,0,0,0,0,0,0,0
655,129,6642,-1724,14840,0,0,0,0,0,0,0,0,0,0,0
656,129,6606,-1478,14936,0,0,0,0,0,0,0,0,0,0,0
657,129,6834,-1420,14812,0,0,0,0,0,0,0,0,0,0,0
658,129,6756,-1452,14886,0,0,0,0,0,0,0,0,0,0,0
659,129,6780,-1478,14774,0,0,0,0,0,0,0,0,0,0,0
660,129,6680,-1788,14626,0,0,0,0,0,0,0,0,0,0,0
661,129,6726,-1708,14572,0,0,0,0,0,0,0,0,0,0,0
662,129,7052,-1728,14702,0,0,0,0,0,0,0,0,0,0,0
663,129,6944,-1680,14572,0,0,0,0,0,0,0,0,0,0,0
664,129,7094,-1570,14758,0,0,0,0,0,0,0,0,0,0,0
665,129,7188,-1440,14850,0,0,0,0,0,0,0,0,0,0,0
666,129,7106,-1626,14718,0,0,0,0,0,0,0,0,0,0,0
667,129,6806,-1606,14634,0,0,0,0,0,0,0,0,0,0,0
668,129,6524,-1580,14558,0,0,0,0,0,0,0,0,0,0,0
669,129,6678,-1578,14882,0,0,0,0,0,0,0,0,0,0,0
670,129,6806,-1612,14776,0,0,0,0,0,0,0,0,0,0,0
671,129,6986,-1374,14816,0,0,0,0,0,0,0,0,0,0,0
672,129,6936,-1562,14810,0,0,0,0,0,0,0,0,0,0,0
673,129,6782,-1556,14680,0,0,0,0,0,0,0,0,0,0,0
674,129,6764,-1672,14800,0,0,0,0,0,0,0,0,0,0,0
675,129,7010,-1322,14778,0,0,0,0,0,0,0,0,0,0,0
676,129,6850,-1464,14752,0,0,0,0,0,0,0,0,0,0,0
677,129,6900,-1506,14730,0,0,0,0,0,0,0,0,0,0,0
678,129,6958,-1548,14820,0,0,0,0,0,0,0,0,0,0,0
679,129,6836,-1386,14886,0,0,0,0,0,0,0,0,0,0,0
680,129,6822,-1366,14962,0,0,0,0,0,0,0,0,0,0,0
681,129,6762,-1408,14598,0,0,0,0,0,0,0,0,0,0,0
682,129,6822,-1454,14770,0,0,0,0,0,0,0,0,0,0,0
683,129,6728,-1330,14990,0,0,0,0,0,0,0,0,0,0,0
684,129,6640,-1432,15062,0,0,0,0,0,0,0,0,0,0,0
685,129,6676,-1290,14770,0,0,0,0,0,0,0,0,0,0,0
686,129,6766,-1470,14726,0,0,0,0,0,0,0,0,0,0,0
687,129,6740,-1480,14668,0,0,0,0,0,0,0,0,0,0,0
688,129,6722,-1318,14794,0,0,0,0,0,0,0,0,0,0,0
689,129,6884,-1612,14744,0,0,0,0,0,0,0,0,0,0,0
690,129,6898,-1464,15000,0,0,0,0,0,0,0,0,0,0,0
691,129,6812,-1330,14852,0,0,0,0,0,0,0,0,0,0,0
692,129,6736,-1538,14832,0,0,0,0,0,0,0,0,0,0,0
693,129,6658,-1502,14814,0,0,0,0,0,0,0,0,0,0,0
694,129,6498,-1488,14880,0,0,0,0,0,0,0,0,0,0,0
695,129,6562,-1516,15006,0,0,0,0,0,0,0,0,0,0,0
696,129,6576,-1646,14984,0,0,0,0,0,0,0,0,0,0,0
697,129,6510,-1504,14938,0,0,0,0,0,0,0,0,0,0,0
698,129,6624,-1446,14812,0,0,0,0,0,0,0,0,0,0,0
699,129,6596,-1432,14806,0,0,0,0,0,0,0,0,0,0,0
700,129,6690,-1492,14736,0,0,0,0,0,0,0,0,0,0,0
701,129,6772,-1530,14750,0,0,0,0,0,0,0,0,0,0,0
702,129,6742,-1594,14742,0,0,0,0,0,0,0,0,0,0,0
703,129,6848,-1486,14870,0,0,0,0,0,0,0,0,0,0,0
704,129,6566,-1328,14886,0,0,0,0,0,0,0,0,0,0,0
705,129,6728,-1232,14746,0,0,0,0,0,0,0,0,0,0,0
706,129,6674,-1418,14858,0,0,0,0,0,0,0,0,0,0,0
707,129,6766,-1452,14904,0,0,0,0,0,0,0,0,0,0,0
708,129,6692,-1360,14876,0,0,0,0,0,0,0,0,0,0,0
709,129,6522,-1364,14650,0,0,0,0,0,0,0,0,0,0,0
710,129,6548,-1404,14898,0,0,0,0,0,0,0,0,0,0,0
711,129,6540,-1384,14954,0,0,0,0,0,0,0,0,0,0,0
712,129,6694,-1474,14848,0,0,0,0,0,0,0,0,0,0,0
713,129,6702,-1358,14886,0,0,0,0,0,0,0,0,0,0,0
714,129,6588,-1332,14878,0,0,0,0,0,0,0,0,0,0,0
715,129,6896,-1232,14954,0,0,0,0,0,0,0,0,0,0,0
716,129,6998,-1306,15008,0,0,0,0,0,0,0,0,0,0,0
717,129,6710,-1352,14856,0,0,0,0,0,0,0,0,0,0,0
718,129,6650,-1266,14882,0,0,0,0,0,0,0,0,0,0,0
719,129,6742,-1422,14872,0,0,0,0,0,0,0,0,0,0,0
720,129,6612,-1414,14892,0,0,0,0,0,0,0,0,0,0,0
721,129,6424,-1268,14866,0,0,0,0,0,0,0,0,0,0,0
722,129,6534,-1378,15022,0,0,0,0,0,0,0,0,0,0,0
723,129,6512,-1448,14898,0,0,0,0,0,0,0,0,0,0,0
724,129,6670,-1428,14838,0,0,0,0,0,0,0,0,0,0,0
725,129,6602,-1430,14742,0,0,0,0,0,0,0,0,0,0,0
726,129,6420,-1350,14956,0,0,0,0,0,0,0,0,0,0,0
727,129,6386,-1452,14896,0,0,0,0,0,0,0,0,0,0,0
728,129,6482,-1322,14864,0,0,0,0,0,0,0,0,0,0,0
729,129,6620,-1178,14886,0,0,0,0,0,0,0,0,0,0,0
730,129,6492,-1408,14836,0,0,0,0,0,0,0,0,0,0,0
731,129,6432,-1274,14908,0,0,0,0,0,0,0,0,0,0,0
732,129,6590,-1444,15016,0,0,0,0,0,0,0,0,0,0,0
733,129,6584,-1436,15058,0,0,0,0,0,0,0,0,0,0,0
734,129,6454,-1360,14918,0,0,0,0,0,0,0,0,0,0,0
735,129,6390,-1374,14948,0,0,0,0,0,0,0,0,0,0,0
736,129,6314,-1372,15026,0,0,0,0,0,0,0,0,0,0,0
737,129,6454,-1422,14906,0,0,0,0,0,0,0,0,0,0,0
738,129,6490,-1420,15108,0,0,0,0,0,0,0,0,0,0,0
739,129,6372,-1240,14914,0,0,0,0,0,0,0,0,0,0,0
740,129,6288,-1378,14896,0,0,0,0,0,0,0,0,0,0,0
741,129,6556,-1370,15126,0,0,0,0,0,0,0,0,0,0,0
742,129,6668,-1336,15042,0,0,0,0,0,0,0,0,0,0,0
743,129,6588,-1166,15016,0,0,0,0,0,0,0,0,0,0,0
744,129,6468,-1328,14782,0,0,0,0,0,0,0,0,0,0,0
745,129,6432,-1258,14880,0,0,0,0,0,0,0,0,0,0,0
746,129,6352,-1356,14874,0,0,0,0,0,0,0,0,0,0,0
747,129,6234,-1476,14938,0,0,0,0,0,0,0,0,0,0,0
748,129,6534,-1272,14906,0,0,0,0,0,0,0,0,0,0,0
749,129,6628,-1330,14576,0,0,0,0,0,0,0,0,0,0,0
750,129,6580,-1306,14956,0,0,0,0,0,0,0,0,0,0,0
751,129,6524,-1374,14876,0,0,0,0,0,0,0,0,0,0,0
752,129,6386,-1262,15058,0,0,0,0,0,0,0,0,0,0,0
753,129,6422,-1392,14760,0,0,0,0,0,0,0,0,0,0,0
754,129,6428,-1264,15014,0,0,0,0,0,0,0,0,0,0,0
755,129,6474,-1322,15166,0,0,0,0,0,0,0,0,0,0,0
756,129,6290,-1278,15118,0,0,0,0,0,0,0,0,0,0,0
757,129,6306,-1212,15186,0,0,0,0,0,0,0,0,0,0,0
758,129,6292,-1312,14950,0,0,0,0,0,0,0,0,0,0,0
759,129,6230,-1334,14888,0,0,0,0,0,0,0,0,0,0,0
760,129,6344,-1216,15082,0,0,0,0,0,0,0,0,0,0,0
761,129,6356,-1286,15066,0,0,0,0,0,0,0,0,0,0,0
762,129,6504,-1072,15060,0,0,0,0,0,0,0,0,0,0,0
763,129,6512,-1296,14818,0,0,0,0,0,0,0,0,0,0,0
764,129,6392,-1230,14910,0,0,0,0,0,0,0,0,0,0,0
765,129,6570,-1262,14960,0,0,0,0,0,0,0,0,0,0,0
766,129,6588,-1226,14940,0,0,0,0,0,0,0,0,0,0,0
767,129,6612,-1426,14586,0,0,0,0,0,0,0,0,0,0,0
768,129,6568,-1188,14932,0,0,0,0,0,0,0,0,0,0,0
769,129,6702,-1234,14874,0,0,0,0,0,0,0,0,0,0,0
770,129,6446,-1306,15002,0,0,0,0,0,0,0,0,0,0,0
771,129,6390,-1308,14880,0,0,0,0,0,0,0,0,0,0,0
772,129,6274,-1170,15158,0,0,0,0,0,0,0,0,0,0,0
773,129,6496,-1316,15126,0,0,0,0,0,0,0,0,0,0,0
774,129,6480,-1142,15294,0,0,0,0,0,0,0,0,0,0,0
775,129,6334,-1282,14960,0,0,0,0,0,0,0,0,0,0,0
776,129,6382,-1154,15012,0,0,0,0,0,0,0,0,0,0,0
777,129,6556,-1326,15046,0,0,0,0,0,0,0,0,0,0,0
778,129,6420,-1282,14934,0,0,0,0,0,0,0,0,0,0,0
779,129,6516,-1286,15134,0,0,0,0,0,0,0,0,0,0,0
780,129,6392,-1270,15144,0,0,0,0,0,0,0,0,0,0,0
781,129,6482,-1222,14930,0,0,0,0,0,0,0,0,0,0,0
782,129,6398,-980,15062,0,0,0,0,0,0,0,0,0,0,0
783,129,6356,-1150,14528,0,0,0,0,0,0,0,0,0,0,0
784,129,6392,-1290,15032,0,0,0,0,0,0,0,0,0,0,0
785,129,6352,-1148,15002,0,0,0,0,0,0,0,0,0,0,0
786,129,6396,-1108,15176,0,0,0,0,0,0,0,0,0,0,0
787,129,6324,-1302,14886,0,0,0,0,0,0,0,0,0,0,0
788,129,6396,-1408,15010,0,0,0,0,0,0,0,0,0,0,0
789,129,6554,-1230,14866,0,0,0,0,0,0,0,0,0,0,0
790,129,6460,-1386,14952,0,0,0,0,0,0,0,0,0,0,0
791,129,6478,-1230,15004,0,0,0,0,0,0,0,0,0,0,0
792,129,6398,-1100,14736,0,0,0,0,0,0,0,0,0,0,0
793,129,6550,-1188,14846,0,0,0,0,0,0,0,0,0,0,0
794,129,6880,-1116,15134,0,0,0,0,0,0,0,0,0,0,0
795,129,6790,-1198,15200,0,0,0,0,0,0,0,0,0,0,0
796,129,6560,-970,15180,0,0,0,0,0,0,0,0,0,0,0
797,129,6178,-1024,15052,0,0,0,0,0,0,0,0,0,0,0
798,129,5982,-994,15046,0,0,0,0,0,0,0,0,0,0,0
799,129,6062,-1274,15044,0,0,0,0,0,0,0,0,0,0,0
800,129,6306,-1164,14974,0,0,0,0,0,0,0,0,0,0,0
801,129,6380,-1002,15048,0,0,0,0,0,0,0,0,0,0,0
802,129,6374,-1100,15058,0,0,0,0,0,0,0,0,0,0,0
803,129,6598,-1154,15070,0,0,0,0,0,0,0,0,0,0,0
804,129,6494,-942,14900,0,0,0,0,0,0,0,0,0,0,0
805,129,6552,-1076,14950,0,0,0,0,0,0,0,0,0,0,0
806,129,6554,-1268,15016,0,0,0,0,0,0,0,0,0,0,0
807,129,6356,-1014,14824,0,0,0,0,0,0,0,0,0,0,0
808,129,6428,-1122,15020,0,0,0,0,0,0,0,0,0,0,0
809,129,6526,-1132,14940,0,0,0,0,0,0,0,0,0,0,0
810,129,6724,-1102,15202,0,0,0,0,0,0,0,0,0,0,0
811,129,6566,-1022,15050,0,0,0,0,0,0,0,0,0,0,0
812,129,6492,-1040,14878,0,0,0,0,0,0,0,0,0,0,0
813,129,6688,-1106,15122,0,0,0,0,0,0,0,0,0,0,0
814,129,6534,-1010,15006,0,0,0,0,0,0,0,0,0,0,0
815,129,6414,-1146,14892,0,0,0,0,0,0,0,0,0,0,0
816,129,6612,-1008,15124,0,0,0,0,0,0,0,0,0,0,0
817,129,6708,-1054,15018,0,0,0,0,0,0,0,0,0,0,0
818,129,6656,-1102,14746,0,0,0,0,0,0,0,0,0,0,0
819,129,6632,-1058,14898,0,0,0,0,0,0,0,0,0,0,0
820,129,6814,-1156,15018,0,0,0,0,0,0,0,0,0,0,0
821,129,6680,-1072,14954,0,0,0,0,0,0,0,0,0,0,0
822,129,6540,-1186,14872,0,0,0,0,0,0,0,0,0,0,0
823,129,6452,-1222,14790,0,0,0,0,0,0,0,0,0,0,0
824,129,6408,-1130,15062,0,0,0,0,0,0,0,0,0,0,0
825,129,6310,-984,14672,0,0,0,0,0,0,0,0,0,0,0
826,129,6490,-1080,14864,0,0,0,0,0,0,0,0,0,0,0
827,129,6594,-998,15102,0,0,0,0,0,0,0,0,0,0,0
828,129,6650,-952,15042,0,0,0,0,0,0,0,0,0,0,0
829,129,6614,-1150,14932,0,0,0,0,0,0,0,0,0,0,0
830,129,6562,-1172,15012,0,0,0,0,0,0,0,0,0,0,0
831,129,6578,-950,14954,0,0,0,0,0,0,0,0,0,0,0
832,129,6606,-958,14952,0,0,0,0,0,0,0,0,0,0,0
833,129,6692,-984,14792,0,0,0,0,0,0,0,0,0,0,0
834,129,6764,-1048,15000,0,0,0,0,0,0,0,0,0,0,0
835,129,6520,-1030,14894,0,0,0,0,0,0,0,0,0,0,0
836,129,6526,-1044,14746,0,0,0,0,0,0,0,0,0,0,0
837,129,6718,-884,14968,0,0,0,0,0,0,0,0,0,0,0
838,129,6768,-926,15030,0,0,0,0,0,0,0,0,0,0,0
839,129,6616,-1038,14828,0,0,0,0,0,0,0,0,0,0,0
840,129,6650,-908,15192,0,0,0,0,0,0,0,0,0,0,0
841,129,6514,-1130,15052,0,0,0,0,0,0,0,0,0,0,0
842,129,6452,-1012,14912,0,0,0,0,0,0,0,0,0,0,0
843,129,6504,-928,14814,0,0,0,0,0,0,0,0,0,0,0
844,129,6518,-948,14922,0,0,0,0,0,0,0,0,0,0,0
845,129,6686,-1026,14802,0,0,0,0,0,0,0,0,0,0,0
846,129,7050,-796,14998,0,0,0,0,0,0,0,0,0,0,0
847,129,6826,-986,15022,0,0,0,0,0,0,0,0,0,0,0
848,129,6702,-950,15040,0,0,0,0,0,0,0,0,0,0,0
849,129,6388,-1056,14900,0,0,0,0,0,0,0,0,0,0,0
850,129,6414,-958,14638,0,0,0,0,0,0,0,0,0,0,0
851,129,6516,-1038,15082,0,0,0,0,0,0,0,0,0,0,0
852,129,6644,-980,15008,0,0,0,0,0,0,0,0,0,0,0
853,129,6446,-950,14902,0,0,0,0,0,0,0,0,0,0,0
854,129,6362,-1126,15022,0,0,0,0,0,0,0,0,0,0,0
855,129,6656,-1022,15014,0,0,0,0,0,0,0,0,0,0,0
856,129,6838,-784,15170,0,0,0,0,0,0,0,0,0,0,0
857,129,6708,-852,15008,0,0,0,0,0,0,0,0,0,0,0
858,129,6526,-1052,14856,0,0,0,0,0,0,0,0,0,0,0
859,129,6622,-994,14852,0,0,0,0,0,0,0,0,0,0,0
860,129,6534,-1124,14926,0,0,0,0,0,0,0,0,0,0,0
861,129,6742,-1034,15138,0,0,0,0,0,0,0,0,0,0,0
862,129,6570,-972,15000,0,0,0,0,0,0,0,0,0,0,0
863,129,6698,-950,15154,0,0,0,0,0,0,0,0,0,0,0
864,129,6514,-1150,15026,0,0,0,0,0,0,0,0,0,0,0
865,129,6544,-944,15066,0,0,0,0,0,0,0,0,0,0,0
866,129,6592,-798,14848,0,0,0,0,0,0,0,0,0,0,0
867,129,6524,-1028,15024,0,0,0,0,0,0,0,0,0,0,0
868,129,6652,-1204,14892,0,0,0,0,0,0,0,0,0,0,0
869,129,6616,-1046,15028,0,0,0,0,0,0,0,0,0,0,0
870,129,6518,-1002,14956,0,0,0,0,0,0,0,0,0,0,0
871,129,6668,-842,14898,0,0,0,0,0,0,0,0,0,0,0
872,129,6656,-964,15026,0,0,0,0,0,0,0,0,0,0,0
873,129,6856,-948,15038,0,0,0,0,0,0,0,0,0,0,0
874,129,6574,-984,14994,0,0,0,0,0,0,0,0,0,0,0
875,129,6384,-934,14860,0,0,0,0,0,0,0,0,0,0,0
876,129,6540,-874,15044,0,0,0,0,0,0,0,0,0,0,0
877,129,6436,-838,14900,0,0,0,0,0,0,0,0,0,0,0
878,129,6562,-980,15194,0,0,0,0,0,0,0,0,0,0,0
879,129,6544,-1010,14954,0,0,0,0,0,0,0,0,0,0,0
880,129,6650,-844,14978,0,0,0,0,0,0,0,0,0,0,0
881,129,6500,-792,15000,0,0,0,0,0,0,0,0,0,0,0
882,129,6530,-784,14972,0,0,0,0,0,0,0,0,0,0,0
883,129,6634,-820,14854,0,0,0,0,0,0,0,0,0,0,0
884,129,6578,-880,15102,0,0,0,0,0,0,0,0,0,0,0
885,129,6522,-906,14984,0,0,0,0,0,0,0,0,0,0,0
886,129,6600,-796,15014,0,0,0,0,0,0,0,0,0,0,0
887,129,6636,-882,15118,0,0,0,0,0,0,0,0,0,0,0
888,129,6622,-726,15018,0,0,0,0,0,0,0,0,0,0,0
889,129,6620,-872,15060,0,0,0,0,0,0,0,0,0,0,0
890,129,6544,-846,14922,0,0,0,0,0,0,0,0,0,0,0
891,129,6564,-842,14968,0,0,0,0,0,0,0,0,0,0,0
892,129,6678,-740,15052,0,0,0,0,0,0,0,0,0,0,0
893,129,6678,-874,14928,0,0,0,0,0,0,0,0,0,0,0
894,129,6718,-1038,14972,0,0,0,0,0,0,0,0,0,0,0
895,129,6708,-796,14908,0,0,0,0,0,0,0,0,0,0,0
896,129,6632,-774,14982,0,0,0,0,0,0,0,0,0,0,0
897,129,6716,-728,14814,0,0,0,0,0,0,0,0,0,0,0
898,129,6912,-848,14960,0,0,0,0,0,0,0,0,0,0,0
899,129,6864,-786,14832,0,0,0,0,0,0,0,0,0,0,0
900,129,6648,-692,14934,0,0,0,0,0,0,0,0,0,0,0
901,129,6466,-704,15014,0,0,0,0,0,0,0,0,0,0,0
902,129,6506,-700,14962,0,0,0,0,0,0,0,0,0,0,0
903,129,6790,-652,15032,0,0,0,0,0,0,0,0,0,0,0
904,129,6648,-722,14900,0,0,0,0,0,0,0,0,0,0,0
905,129,6456,-850,14762,0,0,0,0,0,0,0,0,0,0,0
906,129,6706,-834,14846,0,0,0,0,0,0,0,0,0,0,0
907,129,6860,-818,14900,0,0,0,0,0,0,0,0,0,0,0
908,129,6618,-842,14944,0,0,0,0,0,0,0,0,0,0,0
909,129,6632,-766,15068,0,0,0,0,0,0,0,0,0,0,0
910,129,6766,-748,15038,0,0,0,0,0,0,0,0,0,0,0
911,129,6672,-972,14894,0,0,0,0,0,0,0,0,0,0,0
912,129,6742,-718,15042,0,0,0,0,0,0,0,0,0,0,0
913,129,6646,-788,14764,0,0,0,0,0,0,0,0,0,0,0
914,129,6534,-826,14934,0,0,0,0,0,0,0,0,0,0,0
915,129,6558,-818,14918,0,0,0,0,0,0,0,0,0,0,0
916,129,6678,-746,15028,0,0,0,0,0,0,0,0,0,0,0
917,129,6778,-512,15044,0,0,0,0,0,0,0,0,0,0,0
918,129,6554,-642,15082,0,0,0,0,0,0,0,0,0,0,0
919,129,6716,-866,14994,0,0,0,0,0,0,0,0,0,0,0
920,129,6790,-926,14838,0,0,0,0,0,0,0,0,0,0,0
921,129,6558,-806,14820,0,0,0,0,0,0,0,0,0,0,0
922,129,6384,-844,14866,0,0,0,0,0,0,0,0,0,0,0
923,129,6892,-860,15028,0,0,0,0,0,0,0,0,0,0,0
924,129,6910,-846,15118,0,0,0,0,0,0,0,0,0,0,0
925,129,6744,-640,14862,0,0,0,0,0,0,0,0,0,0,0
926,129,6624,-854,15028,0,0,0,0,0,0,0,0,0,0,0
927,129,6592,-964,14960,0,0,0,0,0,0,0,0,0,0,0
928,129,6518,-924,14906,0,0,0,0,0,0,0,0,0,0,0
929,129,6680,-956,15042,0,0,0,0,0,0,0,0,0,0,0
930,129,6616,-838,14910,0,0,0,0,0,0,0,0,0,0,0
931,129,6640,-952,14854,0,0,0,0,0,0,0,0,0,0,0
932,129,6672,-868,14926,0,0,0,0,0,0,0,0,0,0,0
933,129,6638,-774,15074,0,0,0,0,0,0,0,0,0,0,0
934,129,6568,-882,15080,0,0,0,0,0,0,0,0,0,0,0
935,129,6652,-940,14930,0,0,0,0,0,0,0,0,0,0,0
936,129,6666,-862,15126,0,0,0,0,0,0,0,0,0,0,0
937,129,6606,-884,14876,0,0,0,0,0,0,0,0,0,0,0
938,129,6570,-856,14964,0,0,0,0,0,0,0,0,0,0,0
939,129,6616,-984,14936,0,0,0,0,0,0,0,0,0,0,0
940,129,6630,-910,14996,0,0,0,0,0,0,0,0,0,0,0
941,129,6552,-870,14698,0,0,0,0,0,0,0,0,0,0,0
942,129,6448,-942,14782,0,0,0,0,0,0,0,0,0,0,0
943,129,6486,-944,15024,0,0,0,0,0,0,0,0,0,0,0
944,129,6696,-928,14938,0,0,0,0,0,0,0,0,0,0,0
945,129,6648,-888,15090,0,0,0,0,0,0,0,0,0,0,0
946,129,6394,-846,15030,0,0,0,0,0,0,0,0,0,0,0
947,129,6620,-986,14934,0,0,0,0,0,0,0,0,0,0,0
948,129,6510,-938,14942,0,0,0,0,0,0,0,0,0,0,0
949,129,6722,-842,15024,0,0,0,0,0,0,0,0,0,0,0
950,129,6684,-922,14930,0,0,0,0,0,0,0,0,0,0,0
951,129,6534,-722,14944,0,0,0,0,0,0,0,0,0,0,0
952,129,6546,-880,14960,0,0,0,0,0,0,0,0,0,0,0
953,129,6686,-860,14898,0,0,0,0,0,0,0,0,0,0,0
954,129,6430,-846,15024,0,0,0,0,0,0,0,0,0,0,0
955,129,6490,-964,14928,0,0,0,0,0,0,0,0,0,0,0
956,129,6520,-848,15024,0,0,0,0,0,0,0,0,0,0,0
957,129,6678,-800,14844,0,0,0,0,0,0,0,0,0,0,0
958,129,6752,-806,14906,0,0,0,0,0,0,0,0,0,0,0
959,129,6738,-792,14968,0,0,0,0,0,0,0,0,0,0,0
960,129,6708,-876,14942,0,0,0,0,0,0,0,0,0,0,0
961,129,6658,-894,14798,0,0,0,0,0,0,0,0,0,0,0
962,129,6800,-766,14914,0,0,0,0,0,0,0,0,0,0,0
963,129,6836,-726,14868,0,0,0,0,0,0,0,0,0,0,0
964,129,6640,-936,14878,0,0,0,0,0,0,0,0,0,0,0
965,129,6606,-784,15036,0,0,0,0,0,0,0,0,0,0,0
966,129,6566,-922,14908,0,0,0,0,0,0,0,0,0,0,0
967,129,6766,-1032,15092,0,0,0,0,0,0,0,0,0,0,0
968,129,6606,-904,15104,0,0,0,0,0,0,0,0,0,0,0
969,129,6738,-740,14992,0,0,0,0,0,0,0,0,0,0,0
970,129,6706,-850,14968,0,0,0,0,0,0,0,0,0,0,0
971,129,6634,-972,15070,0,0,0,0,0,0,0,0,0,0,0
972,129,6522,-876,14950,0,0,0,0,0,0,0,0,0,0,0
973,129,6572,-858,14866,0,0,0,0,0,0,0,0,0,0,0
974,129,6590,-858,14942,0,0,0,0,0,0,0,0,0,0,0
975,129,6446,-896,14894,0,0,0,0,0,0,0,0,0,0,0
976,129,6542,-826,15016,0,0,0,0,0,0,0,0,0,0,0
977,129,6610,-732,15226,0,0,0,0,0,0,0,0,0,0,0
978,129,6536,-700,15078,0,0,0,0,0,0,0,0,0,0,0
979,129,6562,-822,15032,0,0,0,0,0,0,0,0,0,0,0
980,129,6580,-642,14892,0,0,0,0,0,0,0,0,0,0,0
981,129,6604,-862,14964,0,0,0,0,0,0,0,0,0,0,0
982,129,6610,-926,14904,0,0,0,0,0,0,0,0,0,0,0
983,129,6592,-854,15024,0,0,0,0,0,0,0,0,0,0,0
984,129,6704,-696,15066,0,0,0,0,0,0,0,0,0,0,0
985,129,6458,-818,15070,0,0,0,0,0,0,0,0,0,0,0
986,129,6626,-702,15150,0,0,0,0,0,0,0,0,0,0,0
987,129,6438,-666,14682,0,0,0,0,0,0,0,0,0,0,0
988,129,6450,-830,14844,0,0,0,0,0,0,0,0,0,0,0
989,129,6568,-812,14980,0,0,0,0,0,0,0,0,0,0,0
990,129,6602,-716,14966,0,0,0,0,0,0,0,0,0,0,0
991,129,6646,-716,15032,0,0,0,0,0,0,0,0,0,0,0
992,129,6656,-742,14996,0,0,0,0,0,0,0,0,0,0,0
993,129,6740,-694,14810,0,0,0,0,0,0,0,0,0,0,0
994,129,6660,-722,14892,0,0,0,0,0,0,0,0,0,0,0
995,129,6568,-730,14882,0,0,0,0,0,0,0,0,0,0,0
996,129,6468,-696,14850,0,0,0,0,0,0,0,0,0,0,0
997,129,6726,-728,15078,0,0,0,0,0,0,0,0,0,0,0
998,129,6562,-748,14984,0,0,0,0,0,0,0,0,0,0,0
999,129,6890,-664,15132,0,0,0,0,0,0,0,0,0,0,0
1000,129,6710,-630,15094,0,0,0,0,0,0,0,0,0,0,0
1001,129,6738,-686,14956,0,0,0,0,0,0,0,0,0,0,0
1002,129,6606,-640,14954,0,0,0,0,0,0,0,0,0,0,0
1003,129,6456,-710,14954,0,0,0,0,0,0,0,0,0,0,0
1004,129,6456,-644,14922,0,0,0,0,0,0,0,0,0,0,0
1005,129,6330,-638,14880,0,0,0,0,0,0,0,0,0,0,0
1006,129,6350,-818,14940,0,0,0,0,0,0,0,0,0,0,0
1007,129,6596,-666,14984,0,0,0,0,0,0,0,0,0,0,0
1008,129,6526,-632,15050,0,0,0,0,0,0,0,0,0,0,0
1009,129,6646,-678,15026,0,0,0,0,0,0,0,0,0,0,0
1010,129,6594,-688,14838,0,0,0,0,0,0,0,0,0,0,0
1011,129,6666,-794,15070,0,0,0,0,0,0,0,0,0,0,0
1012,129,6630,-754,15050,0,0,0,0,0,0,0,0,0,0,0
1013,129,6464,-710,15084,0,0,0,0,0,0,0,0,0,0,0
1014,129,6518,-714,15094,0,0,0,0,0,0,0,0,0,0,0
1015,129,6506,-720,15048,0,0,0,0,0,0,0,0,0,0,0
1016,129,6496,-708,14954,0,0,0,0,0,0,0,0,0,0,0
1017,129,6660,-740,14940,0,0,0,0,0,0,0,0,0,0,0
1018,129,6632,-870,15058,0,0,0,0,0,0,0,0,0,0,0
1019,129,6492,-726,14752,0,0,0,0,0,0,0,0,0,0,0
1020,129,6510,-674,14948,0,0,0,0,0,0,0,0,0,0,0
1021,129,6504,-768,15006,0,0,0,0,0,0,0,0,0,0,0
1022,129,6716,-798,15160,0,0,0,0,0,0,0,0,0,0,0
1023,129,6642,-774,14958,0,0,0,0,0,0,0,0,0,0,0
1024,129,6492,-700,15042,0,0,0,0,0,0,0,0,0,0,0
1025,129,6614,-634,14876,0,0,0,0,0,0,0,0,0,0,0
1026,129,6754,-648,14950,0,0,0,0,0,0,0,0,0,0,0
1027,129,6726,-578,15134,0,0,0,0,0,0,0,0,0,0,0
1028,129,6550,-614,14780,0,0,0,0,0,0,0,0,0,0,0
1029,129,6602,-726,15038,0,0,0,0,0,0,0,0,0,0,0
1030,129,6600,-578,15070,0,0,0,0,0,0,0,0,0,0,0
1031,129,6474,-568,14814,0,0,0,0,0,0,0,0,0,0,0
1032,129,6510,-712,14806,0,0,0,0,0,0,0,0,0,0,0
1033,129,6642,-736,14990,0,0,0,0,0,0,0,0,0,0,0
1034,129,6748,-636,15034,0,0,0,0,0,0,0,0,0,0,0
1035,129,6606,-592,14998,0,0,0,0,0,0,0,0,0,0,0
1036,129,6526,-508,14758,0,0,0,0,0,0,0,0,0,0,0
1037,129,6590,-510,14986,0,0,0,0,0,0,0,0,0,0,0
1038,129,6590,-504,15232,0,0,0,0,0,0,0,0,0,0,0
1039,129,6440,-578,14924,0,0,0,0,0,0,0,0,0,0,0
1040,129,6372,-508,15004,0,0,0,0,0,0,0,0,0,0,0
1041,129,6490,-682,14928,0,0,0,0,0,0,0,0,0,0,0
1042,129,6728,-550,15050,0,0,0,0,0,0,0,0,0,0,0
1043,129,6584,-604,14938,0,0,0,0,0,0,0,0,0,0,0
1044,129,6524,-484,15014,0,0,0,0,0,0,0,0,0,0,0
1045,129,6550,-534,15044,0,0,0,0,0,0,0,0,0,0,0
1046,129,6458,-566,15092,0,0,0,0,0,0,0,0,0,0,0
1047,129,6448,-584,15062,0,0,0,0,0,0,0,0,0,0,0
1048,129,6452,-772,15094,0,0,0,0,0,0,0,0,0,0,0
1049,129,6396,-626,14826,0,0,0,0,0,0,0,0,0,0,0
1050,129,6390,-516,14926,0,0,0,0,0,0,0,0,0,0,0
1051,129,6444,-540,14936,0,0,0,0,0,0,0,0,0,0,0
1052,129,6694,-678,15066,0,0,0,0,0,0,0,0,0,0,0
1053,129,6636,-748,14986,0,0,0,0,0,0,0,0,0,0,0
1054,129,6492,-580,15010,0,0,0,0,0,0,0,0,0,0,0
1055,129,6298,-658,14894,0,0,0,0,0,0,0,0,0,0,0
1056,129,6422,-778,15170,0,0,0,0,0,0,0,0,0,0,0
1057,129,6506,-614,14902,0,0,0,0,0,0,0,0,0,0,0
1058,129,6456,-592,15050,0,0,0,0,0,0,0,0,0,0,0
1059,129,6488,-600,14906,0,0,0,0,0,0,0,0,0,0,0
1060,129,6558,-648,15156,0,0,0,0,0,0,0,0,0,0,0
1061,129,6590,-586,15060,0,0,0,0,0,0,0,0,0,0,0
1062,129,6434,-682,15096,0,0,0,0,0,0,0,0,0,0,0
1063,129,6604,-608,14972,0,0,0,0,0,0,0,0,0,0,0
1064,129,6586,-474,15068,0,0,0,0,0,0,0,0,0,0,0
1065,129,6518,-622,15020,0,0,0,0,0,0,0,0,0,0,0
1066,129,6408,-488,14948,0,0,0,0,0,0,0,0,0,0,0
1067,129,6460,-736,14994,0,0,0,0,0,0,0,0,0,0,0
1068,129,6570,-612,14992,0,0,0,0,0,0,0,0,0,0,0
1069,129,6526,-548,14874,0,0,0,0,0,0,0,0,0,0,0
1070,129,6500,-562,15042,0,0,0,0,0,0,0,0,0,0,0
1071,129,6358,-566,15072,0,0,0,0,0,0,0,0,0,0,0
1072,129,6446,-404,15108,0,0,0,0,0,0,0,0,0,0,0
1073,129,6438,-638,15144,0,0,0,0,0,0,0,0,0,0,0
1074,129,6346,-644,14918,0,0,0,0,0,0,0,0,0,0,0
1075,129,6228,-528,14816,0,0,0,0,0,0,0,0,0,0,0
1076,129,6384,-412,14982,0,0,0,0,0,0,0,0,0,0,0
1077,129,6608,-570,14820,0,0,0,0,0,0,0,0,0,0,0
1078,129,6766,-644,14958,0,0,0,0,0,0,0,0,0,0,0
1079,129,6494,-600,14954,0,0,0,0,0,0,0,0,0,0,0
1080,129,6380,-590,15144,0,0,0,0,0,0,0,0,0,0,0
1081,129,6338,-522,15040,0,0,0,0,0,0,0,0,0,0,0
1082,129,6316,-390,15024,0,0,0,0,0,0,0,0,0,0,0
1083,129,6438,-450,15106,0,0,0,0,0,0,0,0,0,0,0
1084,129,6460,-558,15118,0,0,0,0,0,0,0,0,0,0,0
1085,129,6418,-582,14872,0,0,0,0,0,0,0,0,0,0,0
1086,129,6394,-448,14872,0,0,0,0,0,0,0,0,0,0,0
1087,129,6596,-378,14924,0,0,0,0,0,0,0,0,0,0,0
1088,129,6488,-416,14916,0,0,0,0,0,0,0,0,0,0,0
1089,129,6524,-608,14976,0,0,0,0,0,0,0,0,0,0,0
1090,129,6598,-398,15032,0,0,0,0,0,0,0,0,0,0,0
1091,129,6386,-452,14778,0,0,0,0,0,0,0,0,0,0,0
1092,129,6230,-482,15006,0,0,0,0,0,0,0,0,0,0,0
1093,129,6346,-508,14904,0,0,0,0,0,0,0,0,0,0,0
1094,129,6416,-300,14968,0,0,0,0,0,0,0,0,0,0,0
1095,129,6278,-378,14864,0,0,0,0,0,0,0,0,0,0,0
1096,129,6416,-298,14900,0,0,0,0,0,0,0,0,0,0,0
1097,129,6410,-310,15036,0,0,0,0,0,0,0,0,0,0,0
1098,129,6366,-118,14976,0,0,0,0,0,0,0,0,0,0,0
1099,129,6264,-182,14796,0,0,0,0,0,0,0,0,0,0,0
1100,129,6366,84,14962,0,0,0,0,0,0,0,0,0,0,0
1101,129,6708,294,14600,0,0,0,0,0,0,0,0,0,0,0
1102,129,6496,354,14928,0,0,0,0,0,0,0,0,0,0,0
1103,129,6220,358,14398,0,0,0,0,0,0,0,0,0,0,0
1104,129,6322,216,15078,0,0,0,0,0,0,0,0,0,0,0
1105,129,6350,420,15008,0,0,0,0,0,0,0,0,0,0,0
1106,129,6322,438,15166,0,0,0,0,0,0,0,0,0,0,0
1107,129,6254,592,15044,0,0,0,0,0,0,0,0,0,0,0
1108,129,6256,818,14622,0,0,0,0,0,0,0,0,0,0,0
1109,129,6544,546,15208,0,0,0,0,0,0,0,0,0,0,0
1110,129,6158,668,15600,0,0,0,0,0,0,0,0,0,0,0
1111,129,6152,1328,14318,0,0,0,0,0,0,0,0,0,0,0
1112,129,5830,1672,14840,0,0,0,0,0,0,0,0,0,0,0
1113,129,5594,1398,14694,0,0,0,0,0,0,0,0,0,0,0
1114,129,5042,1604,14098,0,0,0,0,0,0,0,0,0,0,0
1115,129,5528,2300,15424,0,0,0,0,0,0,0,0,0,0,0
1116,129,5414,2694,15544,0,0,0,0,0,0,0,0,0,0,0
1117,129,5364,2780,14492,0,0,0,0,0,0,0,0,0,0,0
1118,129,5368,3306,15112,0,0,0,0,0,0,0,0,0,0,0
1119,129,5532,3892,14154,0,0,0,0,0,0,0,0,0,0,0
1120,129,5452,3886,14086,0,0,0,0,0,0,0,0,0,0,0
1121,129,5546,3546,14380,0,0,0,0,0,0,0,0,0,0,0
1122,129,6122,3856,14872,0,0,0,0,0,0,0,0,0,0,0
1123,129,5898,4608,13756,0,0,0,0,0,0,0,0,0,0,0
1124,129,4944,6064,13936,0,0,0,0,0,0,0,0,0,0,0
1125,129,4880,6682,14196,0,0,0,0,0,0,0,0,0,0,0
1126,129,4992,6234,13300,0,0,0,0,0,0,0,0,0,0,0
1127,129,5826,6630,14470,0,0,0,0,0,0,0,0,0,0,0
1128,129,4618,7598,14282,0,0,0,0,0,0,0,0,0,0,0
1129,129,3726,8936,13724,0,0,0,0,0,0,0,0,0,0,0
1130,129,3052,9848,12114,0,0,0,0,0,0,0,0,0,0,0
1131,129,6280,9600,10626,0,0,0,0,0,0,0,0,0,0,0
1132,129,4524,9172,11956,0,0,0,0,0,0,0,0,0,0,0
1133,129,3812,10766,12040,0,0,0,0,0,0,0,0,0,0,0
1134,129,3556,11236,12144,0,0,0,0,0,0,0,0,0,0,0
1135,129,3818,11442,12040,0,0,0,0,0,0,0,0,0,0,0
1136,129,5154,11162,11586,0,0,0,0,0,0,0,0,0,0,0
1137,129,5898,11318,11006,0,0,0,0,0,0,0,0,0,0,0
1138,129,3712,12764,11334,0,0,0,0,0,0,0,0,0,0,0
1139,129,4570,13010,10992,0,0,0,0,0,0,0,0,0,0,0
1140,129,3966,12620,11280,0,0,0,0,0,0,0,0,0,0,0
1141,129,3414,12970,10306,0,0,0,0,0,0,0,0,0,0,0
1142,129,4140,13340,8844,0,0,0,0,0,0,0,0,0,0,0
1143,129,3156,13952,8122,0,0,0,0,0,0,0,0,0,0,0
1144,129,2046,15448,9664,0,0,0,0,0,0,0,0,0,0,0
1145,129,3694,14160,9184,0,0,0,0,0,0,0,0,0,0,0
1146,129,2816,13848,9162,0,0,0,0,0,0,0,0,0,0,0
1147,129,2696,14166,9086,0,0,0,0,0,0,0,0,0,0,0
1148,129,3408,14264,6906,0,0,0,0,0,0,0,0,0,0,0
1149,129,3306,14454,7926,0,0,0,0,0,0,0,0,0,0,0
1150,129,3358,14216,7624,0,0,0,0,0,0,0,0,0,0,0
1151,129,2750,14490,7396,0,0,0,0,0,0,0,0,0,0,0
1152,129,1536,14452,7660,0,0,0,0,0,0,0,0,0,0,0
1153,129,2568,14326,7428,0,0,0,0,0,0,0,0,0,0,0
1154,129,2472,14878,6714,0,0,0,0,0,0,0,0,0,0,0
1155,129,2086,15128,6588,0,0,0,0,0,0,0,0,0,0,0
1156,129,1780,15372,6578,0,0,0,0,0,0,0,0,0,0,0
1157,129,1124,15594,6538,0,0,0,0,0,0,0,0,0,0,0
1158,129,1432,15974,6468,0,0,0,0,0,0,0,0,0,0,0
1159,129,1852,16066,6102,0,0,0,0,0,0,0,0,0,0,0
1160,129,1758,16806,6156,0,0,0,0,0,0,0,0,0,0,0
1161,129,2208,16546,5922,0,0,0,0,0,0,0,0,0,0,0
1162,129,1746,16656,6548,0,0,0,0,0,0,0,0,0,0,0
1163,129,1632,16398,5812,0,0,0,0,0,0,0,0,0,0,0
1164,129,1254,16494,5800,0,0,0,0,0,0,0,0,0,0,0
1165,129,1602,16300,5754,0,0,0,0,0,0,0,0,0,0,0
1166,129,2022,15588,5226,0,0,0,0,0,0,0,0,0,0,0
1167,129,1922,15640,4902,0,0,0,0,0,0,0,0,0,0,0
1168,129,1956,15494,5260,0,0,0,0,0,0,0,0,0,0,0
1169,129,1840,15206,5148,0,0,0,0,0,0,0,0,0,0,0
1170,129,1370,15142,5488,0,0,0,0,0,0,0,0,0,0,0
1171,129,956,15554,5078,0,0,0,0,0,0,0,0,0,0,0
1172,129,984,15782,4978,0,0,0,0,0,0,0,0,0,0,0
1173,129,964,16270,5096,0,0,0,0,0,0,0,0,0,0,0
1174,129,376,15766,5146,0,0,0,0,0,0,0,0,0,0,0
1175,129,524,15706,4874,0,0,0,0,0,0,0,0,0,0,0
1176,129,1082,15632,5238,0,0,0,0,0,0,0,0,0,0,0
1177,129,1260,15702,5386,0,0,0,0,0,0,0,0,0,0,0
1178,129,1010,15724,5242,0,0,0,0,0,0,0,0,0,0,0
1179,129,1014,15926,5182,0,0,0,0,0,0,0,0,0,0,0
1180,129,1238,15760,5094,0,0,0,0,0,0,0,0,0,0,0
1181,129,1418,15550,5452,0,0,0,0,0,0,0,0,0,0,0
1182,129,1088,15768,5316,0,0,0,0,0,0,0,0,0,0,0
1183,129,820,15752,5068,0,0,0,0,0,0,0,0,0,0,0
1184,129,798,15574,5160,0,0,0,0,0,0,0,0,0,0,0
1185,129,728,15520,5282,0,0,0,0,0,0,0,0,0,0,0
1186,129,846,15488,5128,0,0,0,0,0,0,0,0,0,0,0
1187,129,738,15614,4992,0,0,0,0,0,0,0,0,0,0,0
1188,129,920,15574,5386,0,0,0,0,0,0,0,0,0,0,0
1189,129,1078,15730,5120,0,0,0,0,0,0,0,0,0,0,0
1190,129,1120,15660,5044,0,0,0,0,0,0,0,0,0,0,0
1191,129,992,15944,5372,0,0,0,0,0,0,0,0,0,0,0
1192,129,1006,15798,5138,0,0,0,0,0,0,0,0,0,0,0
1193,129,1156,15714,4988,0,0,0,0,0,0,0,0,0,0,0
1194,129,802,15754,5232,0,0,0,0,0,0,0,0,0,0,0
1195,129,872,15732,5298,0,0,0,0,0,0,0,0,0,0,0
1196,129,1122,15650,5362,0,0,0,0,0,0,0,0,0,0,0
1197,129,1278,15598,5216,0,0,0,0,0,0,0,0,0,0,0
1198,129,1054,15622,5124,0,0,0,0,0,0,0,0,0,0,0
1199,129,974,15726,5142,0,0,0,0,0,0,0,0,0,0,0
1200,129,988,15560,5228,0,0,0,0,0,0,0,0,0,0,0
1201,129,1118,15502,5090,0,0,0,0,0,0,0,0,0,0,0
1202,129,1226,15616,5240,0,0,0,0,0,0,0,0,0,0,0
1203,129,1032,15686,4974,0,0,0,0,0,0,0,0,0,0,0
1204,129,816,15942,5050,0,0,0,0,0,0,0,0,0,0,0
1205,129,644,15976,5068,0,0,0,0,0,0,0,0,0,0,0
1206,129,710,15804,5014,0,0,0,0,0,0,0,0,0,0,0
1207,129,1138,15824,5044,0,0,0,0,0,0,0,0,0,0,0
1208,129,1264,15886,4984,0,0,0,0,0,0,0,0,0,0,0
1209,129,1320,16078,5008,0,0,0,0,0,0,0,0,0,0,0
1210,129,1164,16002,5130,0,0,0,0,0,0,0,0,0,0,0
1211,129,1158,15812,4822,0,0,0,0,0,0,0,0,0,0,0
1212,129,1180,15782,5020,0,0,0,0,0,0,0,0,0,0,0
1213,129,1294,15574,4878,0,0,0,0,0,0,0,0,0,0,0
1214,129,1006,15538,5098,0,0,0,0,0,0,0,0,0,0,0
1215,129,734,15568,5086,0,0,0,0,0,0,0,0,0,0,0
1216,129,1246,15438,4952,0,0,0,0,0,0,0,0,0,0,0
1217,129,1814,15404,4760,0,0,0,0,0,0,0,0,0,0,0
1218,129,1552,15750,4930,0,0,0,0,0,0,0,0,0,0,0
1219,129,1206,15882,5098,0,0,0,0,0,0,0,0,0,0,0
1220,129,1162,15730,5218,0,0,0,0,0,0,0,0,0,0,0
1221,129,1360,15716,5296,0,0,0,0,0,0,0,0,0,0,0
1222,129,1266,15834,5226,0,0,0,0,0,0,0,0,0,0,0
1223,129,1336,15736,5262,0,0,0,0,0,0,0,0,0,0,0
1224,129,1632,15556,5078,0,0,0,0,0,0,0,0,0,0,0
1225,129,1244,15650,5074,0,0,0,0,0,0,0,0,0,0,0
1226,129,962,15694,5326,0,0,0,0,0,0,0,0,0,0,0
1227,129,1456,15258,5268,0,0,0,0,0,0,0,0,0,0,0
1228,129,1590,15630,5584,0,0,0,0,0,0,0,0,0,0,0
1229,129,1220,15554,5692,0,0,0,0,0,0,0,0,0,0,0
1230,129,1344,15554,5052,0,0,0,0,0,0,0,0,0,0,0
1231,129,930,15564,5308,0,0,0,0,0,0,0,0,0,0,0
1232,129,1442,15518,5338,0,0,0,0,0,0,0,0,0,0,0
1233,129,542,14604,5476,0,0,0,0,0,0,0,0,0,0,0
1234,129,2298,15732,5784,0,0,0,0,0,0,0,0,0,0,0
1235,129,1324,15952,5116,0,0,0,0,0,0,0,0,0,0,0
1236,129,1404,15536,5338,0,0,0,0,0,0,0,0,0,0,0
1237,129,962,15674,5112,0,0,0,0,0,0,0,0,0,0,0
1238,129,1140,15526,5446,0,0,0,0,0,0,0,0,0,0,0
1239,129,1050,15658,5292,0,0,0,0,0,0,0,0,0,0,0
1240,129,1336,15744,5320,0,0,0,0,0,0,0,0,0,0,0
1241,129,1310,15618,5150,0,0,0,0,0,0,0,0,0,0,0
1242,129,1672,15492,5338,0,0,0,0,0,0,0,0,0,0,0
1243,129,1458,15560,5342,0,0,0,0,0,0,0,0,0,0,0
1244,129,1448,15554,5474,0,0,0,0,0,0,0,0,0,0,0
1245,129,1382,15542,5366,0,0,0,0,0,0,0,0,0,0,0
1246,129,1340,15588,5458,0,0,0,0,0,0,0,0,0,0,0
1247,129,1240,15672,5316,0,0,0,0,0,0,0,0,0,0,0
1248,129,1414,15572,5616,0,0,0,0,0,0,0,0,0,0,0
1249,129,1484,15634,5634,0,0,0,0,0,0,0,0,0,0,0
1250,129,1538,15438,5442,0,0,0,0,0,0,0,0,0,0,0
1251,129,1436,15506,5360,0,0,0,0,0,0,0,0,0,0,0
1252,129,1410,15678,5472,0,0,0,0,0,0,0,0,0,0,0
1253,129,1440,15434,5558,0,0,0,0,0,0,0,0,0,0,0
1254,129,1144,15614,5500,0,0,0,0,0,0,0,0,0,0,0
1255,129,1370,15472,5578,0,0,0,0,0,0,0,0,0,0,0
1256,129,1080,15630,5302,0,0,0,0,0,0,0,0,0,0,0
1257,129,894,15742,5438,0,0,0,0,0,0,0,0,0,0,0
1258,129,1234,15544,5686,0,0,0,0,0,0,0,0,0,0,0
1259,129,1526,15708,5508,0,0,0,0,0,0,0,0,0,0,0
1260,129,1440,15500,5612,0,0,0,0,0,0,0,0,0,0,0
1261,129,1060,15650,5508,0,0,0,0,0,0,0,0,0,0,0
1262,129,1206,15592,5376,0,0,0,0,0,0,0,0,0,0,0
1263,129,1294,15632,5536,0,0,0,0,0,0,0,0,0,0,0
1264,129,1096,15556,5570,0,0,0,0,0,0,0,0,0,0,0
1265,129,1132,15614,5528,0,0,0,0,0,0,0,0,0,0,0
1266,129,1196,15480,5524,0,0,0,0,0,0,0,0,0,0,0
1267,129,1324,15364,5688,0,0,0,0,0,0,0,0,0,0,0
1268,129,1526,15530,5614,0,0,0,0,0,0,0,0,0,0,0
1269,129,1366,15582,5424,0,0,0,0,0,0,0,0,0,0,0
1270,129,1116,15500,5500,0,0,0,0,0,0,0,0,0,0,0
1271,129,1342,15398,5610,0,0,0,0,0,0,0,0,0,0,0
1272,129,1572,15228,5330,0,0,0,0,0,0,0,0,0,0,0
1273,129,1348,15620,5480,0,0,0,0,0,0,0,0,0,0,0
1274,129,1176,15524,5412,0,0,0,0,0,0,0,0,0,0,0
1275,129,1292,15414,5362,0,0,0,0,0,0,0,0,0,0,0
1276,129,1322,15624,5676,0,0,0,0,0,0,0,0,0,0,0
1277,129,1392,15478,5516,0,0,0,0,0,0,0,0,0,0,0
1278,129,1330,15518,5534,0,0,0,0,0,0,0,0,0,0,0
1279,129,1350,15580,5558,0,0,0,0,0,0,0,0,0,0,0
1280,129,1482,15696,5720,0,0,0,0,0,0,0,0,0,0,0
1281,129,1372,15422,5514,0,0,0,0,0,0,0,0,0,0,0
1282,129,1182,15506,5536,0,0,0,0,0,0,0,0,0,0,0
1283,129,1300,15376,5350,0,0,0,0,0,0,0,0,0,0,0
1284,129,1524,15562,5690,0,0,0,0,0,0,0,0,0,0,0
1285,129,1370,15610,5430,0,0,0,0,0,0,0,0,0,0,0
1286,129,1206,15694,5420,0,0,0,0,0,0,0,0,0,0,0
1287,129,1236,15398,5382,0,0,0,0,0,0,0,0,0,0,0
1288,129,1470,15444,5570,0,0,0,0,0,0,0,0,0,0,0
1289,129,1234,15572,5782,0,0,0,0,0,0,0,0,0,0,0
1290,129,1086,15610,5572,0,0,0,0,0,0,0,0,0,0,0
1291,129,1330,15568,5516,0,0,0,0,0,0,0,0,0,0,0
1292,129,1402,15484,5496,0,0,0,0,0,0,0,0,0,0,0
1293,129,1376,15482,5498,0,0,0,0,0,0,0,0,0,0,0
1294,129,1144,15590,5566,0,0,0,0,0,0,0,0,0,0,0
1295,129,1494,15582,5656,0,0,0,0,0,0,0,0,0,0,0
1296,129,1424,15552,5380,0,0,0,0,0,0,0,0,0,0,0
1297,129,1476,15510,5580,0,0,0,0,0,0,0,0,0,0,0
1298,129,1508,15344,5896,0,0,0,0,0,0,0,0,0,0,0
1299,129,1214,15498,5544,0,0,0,0,0,0,0,0,0,0,0
1300,129,1230,15622,5504,0,0,0,0,0,0,0,0,0,0,0
1301,129,1354,15606,5560,0,0,0,0,0,0,0,0,0,0,0
1302,129,1070,15564,5400,0,0,0,0,0,0,0,0,0,0,0
1303,129,1308,15472,5546,0,0,0,0,0,0,0,0,0,0,0
1304,129,1364,15542,5484,0,0,0,0,0,0,0,0,0,0,0
1305,129,1316,15600,5502,0,0,0,0,0,0,0,0,0,0,0
1306,129,1128,15610,5550,0,0,0,0,0,0,0,0,0,0,0
1307,129,1340,15504,5638,0,0,0,0,0,0,0,0,0,0,0
1308,129,1236,15604,5550,0,0,0,0,0,0,0,0,0,0,0
1309,129,1304,15532,5412,0,0,0,0,0,0,0,0,0,0,0
1310,129,1262,15678,5542,0,0,0,0,0,0,0,0,0,0,0
1311,129,1368,15486,5562,0,0,0,0,0,0,0,0,0,0,0
1312,129,1264,15586,5648,0,0,0,0,0,0,0,0,0,0,0
1313,129,1032,15572,5370,0,0,0,0,0,0,0,0,0,0,0
1314,129,1260,15456,5576,0,0,0,0,0,0,0,0,0,0,0
1315,129,1254,15508,5436,0,0,0,0,0,0,0,0,0,0,0
1316,129,1074,15606,5556,0,0,0,0,0,0,0,0,0,0,0
1317,129,1096,15634,5584,0,0,0,0,0,0,0,0,0,0,0
1318,129,1452,15432,5516,0,0,0,0,0,0,0,0,0,0,0
1319,129,1468,15456,5214,0,0,0,0,0,0,0,0,0,0,0
1320,129,1210,15482,5494,0,0,0,0,0,0,0,0,0,0,0
1321,129,1060,15666,5624,0,0,0,0,0,0,0,0,0,0,0
1322,129,1452,15560,5690,0,0,0,0,0,0,0,0,0,0,0
1323,129,1470,15526,5438,0,0,0,0,0,0,0,0,0,0,0
1324,129,1274,15582,5538,0,0,0,0,0,0,0,0,0,0,0
1325,129,1250,15720,5392,0,0,0,0,0,0,0,0,0,0,0
1326,129,1326,15620,5582,0,0,0,0,0,0,0,0,0,0,0
1327,129,1396,15506,5476,0,0,0,0,0,0,0,0,0,0,0
1328,129,1276,15450,5458,0,0,0,0,0,0,0,0,0,0,0
1329,129,1346,15558,5532,0,0,0,0,0,0,0,0,0,0,0
1330,129,1380,15512,5444,0,0,0,0,0,0,0,0,0,0,0
1331,129,1332,15718,5482,0,0,0,0,0,0,0,0,0,0,0
1332,129,1350,15606,5588,0,0,0,0,0,0,0,0,0,0,0
1333,129,1470,15676,5448,0,0,0,0,0,0,0,0,0,0,0
1334,129,1364,15612,5594,0,0,0,0,0,0,0,0,0,0,0
1335,129,1278,15474,5424,0,0,0,0,0,0,0,0,0,0,0
1336,129,1478,15594,5454,0,0,0,0,0,0,0,0,0,0,0
1337,129,1402,15814,5492,0,0,0,0,0,0,0,0,0,0,0
1338,129,1272,15670,5600,0,0,0,0,0,0,0,0,0,0,0
1339,129,1130,15636,5470,0,0,0,0,0,0,0,0,0,0,0
1340,129,1264,15574,5388,0,0,0,0,0,0,0,0,0,0,0
1341,129,1264,15544,5450,0,0,0,0,0,0,0,0,0,0,0
1342,129,1316,15534,5616,0,0,0,0,0,0,0,0,0,0,0
1343,129,1452,15358,5230,0,0,0,0,0,0,0,0,0,0,0
1344,129,1250,15574,5392,0,0,0,0,0,0,0,0,0,0,0
1345,129,1138,15674,5456,0,0,0,0,0,0,0,0,0,0,0
1346,129,1484,15604,5538,0,0,0,0,0,0,0,0,0,0,0
1347,129,1588,15612,5460,0,0,0,0,0,0,0,0,0,0,0
1348,129,1314,15556,5488,0,0,0,0,0,0,0,0,0,0,0
1349,129,1252,15578,5402,0,0,0,0,0,0,0,0,0,0,0
1350,129,1330,15506,5452,0,0,0,0,0,0,0,0,0,0,0
1351,129,1474,15580,5514,0,0,0,0,0,0,0,0,0,0,0
1352,129,1298,15556,5418,0,0,0,0,0,0,0,0,0,0,0
1353,129,1254,15560,5400,0,0,0,0,0,0,0,0,0,0,0
1354,129,1392,15584,5372,0,0,0,0,0,0,0,0,0,0,0
1355,129,1534,15598,5404,0,0,0,0,0,0,0,0,0,0,0
1356,129,1574,15686,5422,0,0,0,0,0,0,0,0,0,0,0
1357,129,1320,15644,5418,0,0,0,0,0,0,0,0,0,0,0
1358,129,1184,15592,5462,0,0,0,0,0,0,0,0,0,0,0
1359,129,1562,15650,5318,0,0,0,0,0,0,0,0,0,0,0
1360,129,1708,15460,5430,0,0,0,0,0,0,0,0,0,0,0
1361,129,1420,15516,5356,0,0,0,0,0,0,0,0,0,0,0
1362,129,1434,15476,5434,0,0,0,0,0,0,0,0,0,0,0
1363,129,1686,15708,5374,0,0,0,0,0,0,0,0,0,0,0
1364,129,1588,15674,5382,0,0,0,0,0,0,0,0,0,0,0
1365,129,1234,15538,5190,0,0,0,0,0,0,0,0,0,0,0
1366,129,1520,15450,5470,0,0,0,0,0,0,0,0,0,0,0
1367,129,1554,15568,5376,0,0,0,0,0,0,0,0,0,0,0
1368,129,1346,15584,5428,0,0,0,0,0,0,0,0,0,0,0
1369,129,1478,15490,5444,0,0,0,0,0,0,0,0,0,0,0
1370,129,1652,15518,5482,0,0,0,0,0,0,0,0,0,0,0
1371,129,1696,15714,5394,0,0,0,0,0,0,0,0,0,0,0
1372,129,1508,15744,5610,0,0,0,0,0,0,0,0,0,0,0
1373,129,1506,15504,5462,0,0,0,0,0,0,0,0,0,0,0
1374,129,1620,15406,5494,0,0,0,0,0,0,0,0,0,0,0
1375,129,1324,15498,5414,0,0,0,0,0,0,0,0,0,0,0
1376,129,1406,15444,5282,0,0,0,0,0,0,0,0,0,0,0
1377,129,1570,15422,5552,0,0,0,0,0,0,0,0,0,0,0
1378,129,1640,15548,5408,0,0,0,0,0,0,0,0,0,0,0
1379,129,1436,15596,5368,0,0,0,0,0,0,0,0,0,0,0
1380,129,1350,15612,5414,0,0,0,0,0,0,0,0,0,0,0
1381,129,1490,15664,5520,0,0,0,0,0,0,0,0,0,0,0
1382,129,1516,15596,5616,0,0,0,0,0,0,0,0,0,0,0
1383,129,1412,15632,5540,0,0,0,0,0,0,0,0,0,0,0
1384,129,1286,15606,5468,0,0,0,0,0,0,0,0,0,0,0
1385,129,1454,15544,5372,0,0,0,0,0,0,0,0,0,0,0
1386,129,1584,15380,5682,0,0,0,0,0,0,0,0,0,0,0
1387,129,1374,15528,5344,0,0,0,0,0,0,0,0,0,0,0
1388,129,1338,15486,5468,0,0,0,0,0,0,0,0,0,0,0
1389,129,1584,15440,5682,0,0,0,0,0,0,0,0,0,0,0
1390,129,1598,15508,5568,0,0,0,0,0,0,0,0,0,0,0
1391,129,1382,15500,5378,0,0,0,0,0,0,0,0,0,0,0
1392,129,1134,15446,5468,0,0,0,0,0,0,0,0,0,0,0
1393,129,1258,15542,5494,0,0,0,0,0,0,0,0,0,0,0
1394,129,1620,15416,5358,0,0,0,0,0,0,0,0,0,0,0
1395,129,1494,15570,5306,0,0,0,0,0,0,0,0,0,0,0
1396,129,1460,15506,5528,0,0,0,0,0,0,0,0,0,0,0
1397,129,1322,15604,5588,0,0,0,0,0,0,0,0,0,0,0
1398,129,1402,15584,5576,0,0,0,0,0,0,0,0,0,0,0
1399,129,1486,15556,5480,0,0,0,0,0,0,0,0,0,0,0
1400,129,1282,15664,5448,0,0,0,0,0,0,0,0,0,0,0
1401,129,1260,15520,5282,0,0,0,0,0,0,0,0,0,0,0
1402,129,1276,15582,5580,0,0,0,0,0,0,0,0,0,0,0
1403,129,1332,15652,5472,0,0,0,0,0,0,0,0,0,0,0
1404,129,1382,15546,5302,0,0,0,0,0,0,0,0,0,0,0
1405,129,1492,15464,5324,0,0,0,0,0,0,0,0,0,0,0
1406,129,1412,15658,5426,0,0,0,0,0,0,0,0,0,0,0
1407,129,1294,15700,5472,0,0,0,0,0,0,0,0,0,0,0
1408,129,1454,15696,5442,0,0,0,0,0,0,0,0,0,0,0
1409,129,1604,15456,5366,0,0,0,0,0,0,0,0,0,0,0
1410,129,1086,15640,5340,0,0,0,0,0,0,0,0,0,0,0
1411,129,1068,15542,5364,0,0,0,0,0,0,0,0,0,0,0
1412,129,1510,15544,5462,0,0,0,0,0,0,0,0,0,0,0
1413,129,1728,15686,5260,0,0,0,0,0,0,0,0,0,0,0
1414,129,1372,15726,5470,0,0,0,0,0,0,0,0,0,0,0
1415,129,1178,15648,5228,0,0,0,0,0,0,0,0,0,0,0
1416,129,1382,15466,5342,0,0,0,0,0,0,0,0,0,0,0
1417,129,1552,15322,5376,0,0,0,0,0,0,0,0,0,0,0
1418,129,1552,15530,5256,0,0,0,0,0,0,0,0,0,0,0
1419,129,1162,15906,5356,0,0,0,0,0,0,0,0,0,0,0
1420,129,1106,15612,5254,0,0,0,0,0,0,0,0,0,0,0
1421,129,1422,15556,5530,0,0,0,0,0,0,0,0,0,0,0
1422,129,1494,15652,5448,0,0,0,0,0,0,0,0,0,0,0
1423,129,1380,15648,5332,0,0,0,0,0,0,0,0,0,0,0
1424,129,1538,15658,5468,0,0,0,0,0,0,0,0,0,0,0
1425,129,1528,15514,5180,0,0,0,0,0,0,0,0,0,0,0
1426,129,1362,15538,5136,0,0,0,0,0,0,0,0,0,0,0
1427,129,1188,15604,5262,0,0,0,0,0,0,0,0,0,0,0
1428,129,1620,15530,5310,0,0,0,0,0,0,0,0,0,0,0
1429,129,1626,15594,5246,0,0,0,0,0,0,0,0,0,0,0
1430,129,1408,15650,5278,0,0,0,0,0,0,0,0,0,0,0
1431,129,1428,15526,5172,0,0,0,0,0,0,0,0,0,0,0
1432,129,1768,15548,5104,0,0,0,0,0,0,0,0,0,0,0
1433,129,1754,15774,5354,0,0,0,0,0,0,0,0,0,0,0
1434,129,1596,15896,5448,0,0,0,0,0,0,0,0,0,0,0
1435,129,1456,15806,5218,0,0,0,0,0,0,0,0,0,0,0
1436,129,1618,15574,5266,0,0,0,0,0,0,0,0,0,0,0
1437,129,1724,15708,5032,0,0,0,0,0,0,0,0,0,0,0
1438,129,1648,15576,4916,0,0,0,0,0,0,0,0,0,0,0
1439,129,1570,15446,4636,0,0,0,0,0,0,0,0,0,0,0
1440,129,1598,15610,5050,0,0,0,0,0,0,0,0,0,0,0
1441,129,1794,15494,4714,0,0,0,0,0,0,0,0,0,0,0
1442,129,1730,15688,4910,0,0,0,0,0,0,0,0,0,0,0
1443,129,1690,15662,4728,0,0,0,0,0,0,0,0,0,0,0
1444,129,1950,15546,4918,0,0,0,0,0,0,0,0,0,0,0
1445,129,2010,15578,4680,0,0,0,0,0,0,0,0,0,0,0
1446,129,1908,15746,4810,0,0,0,0,0,0,0,0,0,0,0
1447,129,2074,15794,4822,0,0,0,0,0,0,0,0,0,0,0
1448,129,2260,15590,4608,0,0,0,0,0,0,0,0,0,0,0
1449,129,2130,15766,4548,0,0,0,0,0,0,0,0,0,0,0
1450,129,1986,15928,4612,0,0,0,0,0,0,0,0,0,0,0
1451,129,2140,15962,4638,0,0,0,0,0,0,0,0,0,0,0
1452,129,2048,15836,4726,0,0,0,0,0,0,0,0,0,0,0
1453,129,2106,15754,4438,0,0,0,0,0,0,0,0,0,0,0
1454,129,2096,15970,4190,0,0,0,0,0,0,0,0,0,0,0
1455,129,2208,15806,4274,0,0,0,0,0,0,0,0,0,0,0
1456,129,2146,15914,4544,0,0,0,0,0,0,0,0,0,0,0
1457,129,1930,15854,4356,0,0,0,0,0,0,0,0,0,0,0
1458,129,2326,15864,4324,0,0,0,0,0,0,0,0,0,0,0
1459,129,2540,16140,4428,0,0,0,0,0,0,0,0,0,0,0
1460,129,2352,16034,4510,0,0,0,0,0,0,0,0,0,0,0
1461,129,2398,16034,4402,0,0,0,0,0,0,0,0,0,0,0
1462,129,2410,15876,4796,0,0,0,0,0,0,0,0,0,0,0
1463,129,2428,15894,4230,0,0,0,0,0,0,0,0,0,0,0
1464,129,2302,15826,4358,0,0,0,0,0,0,0,0,0,0,0
1465,129,2538,15474,4398,0,0,0,0,0,0,0,0,0,0,0
1466,129,2462,15444,4406,0,0,0,0,0,0,0,0,0,0,0
1467,129,2616,15668,4312,0,0,0,0,0,0,0,0,0,0,0
1468,129,2788,15706,4306,0,0,0,0,0,0,0,0,0,0,0
1469,129,2398,15604,4164,0,0,0,0,0,0,0,0,0,0,0
1470,129,2774,15806,4226,0,0,0,0,0,0,0,0,0,0,0
1471,129,2868,15730,4162,0,0,0,0,0,0,0,0,0,0,0
1472,129,2742,15708,4094,0,0,0,0,0,0,0,0,0,0,0
1473,129,2766,15726,3788,0,0,0,0,0,0,0,0,0,0,0
1474,129,2410,15728,4586,0,0,0,0,0,0,0,0,0,0,0
1475,129,3072,15860,4322,0,0,0,0,0,0,0,0,0,0,0
1476,129,3328,15694,4188,0,0,0,0,0,0,0,0,0,0,0
1477,129,3328,15602,4006,0,0,0,0,0,0,0,0,0,0,0
1478,129,3036,15852,4362,0,0,0,0,0,0,0,0,0,0,0
1479,129,2940,15922,4068,0,0,0,0,0,0,0,0,0,0,0
1480,129,3182,15498,3872,0,0,0,0,0,0,0,0,0,0,0
1481,129,3204,15408,3580,0,0,0,0,0,0,0,0,0,0,0
1482,129,3384,15750,4032,0,0,0,0,0,0,0,0,0,0,0
1483,129,3418,15678,3644,0,0,0,0,0,0,0,0,0,0,0
1484,129,3494,15620,3928,0,0,0,0,0,0,0,0,0,0,0
1485,129,3674,15502,3632,0,0,0,0,0,0,0,0,0,0,0
1486,129,3446,15840,3792,0,0,0,0,0,0,0,0,0,0,0
1487,129,3216,15668,3404,0,0,0,0,0,0,0,0,0,0,0
1488,129,3434,15738,3474,0,0,0,0,0,0,0,0,0,0,0
1489,129,3672,15604,3200,0,0,0,0,0,0,0,0,0,0,0
1490,129,4074,15720,3660,0,0,0,0,0,0,0,0,0,0,0
1491,129,3946,15578,3448,0,0,0,0,0,0,0,0,0,0,0
1492,129,3960,15834,3504,0,0,0,0,0,0,0,0,0,0,0
1493,129,3832,15960,3352,0,0,0,0,0,0,0,0,0,0,0
1494,129,3826,16248,3458,0,0,0,0,0,0,0,0,0,0,0
1495,129,4254,15812,3354,0,0,0,0,0,0,0,0,0,0,0
1496,129,4234,15522,3204,0,0,0,0,0,0,0,0,0,0,0
1497,129,4204,15916,3004,0,0,0,0,0,0,0,0,0,0,0
1498,129,4120,15840,3304,0,0,0,0,0,0,0,0,0,0,0
1499,129,4046,15688,3188,0,0,0,0,0,0,0,0,0,0,0
1500,129,4246,15458,2986,0,0,0,0,0,0,0,0,0,0,0
1501,129,4234,15840,3262,0,0,0,0,0,0,0,0,0,0,0
1502,129,4240,16160,3316,0,0,0,0,0,0,0,0,0,0,0
1503,129,4306,15654,3178,0,0,0,0,0,0,0,0,0,0,0
1504,129,4352,15478,2972,0,0,0,0,0,0,0,0,0,0,0
1505,129,4430,15388,3212,0,0,0,0,0,0,0,0,0,0,0
1506,129,4302,15730,3022,0,0,0,0,0,0,0,0,0,0,0
1507,129,4496,15976,3046,0,0,0,0,0,0,0,0,0,0,0
1508,129,4528,15756,3086,0,0,0,0,0,0,0,0,0,0,0
1509,129,4602,15616,2964,0,0,0,0,0,0,0,0,0,0,0
1510,129,4594,15624,3040,0,0,0,0,0,0,0,0,0,0,0
1511,129,4668,15626,3006,0,0,0,0,0,0,0,0,0,0,0
1512,129,4580,15574,2918,0,0,0,0,0,0,0,0,0,0,0
1513,129,4572,15930,2770,0,0,0,0,0,0,0,0,0,0,0
1514,129,4450,15828,2988,0,0,0,0,0,0,0,0,0,0,0
1515,129,4400,15536,2892,0,0,0,0,0,0,0,0,0,0,0
1516,129,4636,15386,2678,0,0,0,0,0,0,0,0,0,0,0
1517,129,4882,15336,2806,0,0,0,0,0,0,0,0,0,0,0
1518,129,5068,15114,2620,0,0,0,0,0,0,0,0,0,0,0
1519,129,4898,15630,2788,0,0,0,0,0,0,0,0,0,0,0
1520,129,4830,15768,2660,0,0,0,0,0,0,0,0,0,0,0
1521,129,4862,15740,2662,0,0,0,0,0,0,0,0,0,0,0
1522,129,5062,15628,2772,0,0,0,0,0,0,0,0,0,0,0
1523,129,5086,15556,2380,0,0,0,0,0,0,0,0,0,0,0
1524,129,4900,15758,2904,0,0,0,0,0,0,0,0,0,0,0
1525,129,4944,15772,2568,0,0,0,0,0,0,0,0,0,0,0
1526,129,5184,15808,2610,0,0,0,0,0,0,0,0,0,0,0
1527,129,4964,15700,2346,0,0,0,0,0,0,0,0,0,0,0
1528,129,4982,15652,2676,0,0,0,0,0,0,0,0,0,0,0
1529,129,5062,15672,2748,0,0,0,0,0,0,0,0,0,0,0
1530,129,4950,15776,2596,0,0,0,0,0,0,0,0,0,0,0
1531,129,4988,15952,2652,0,0,0,0,0,0,0,0,0,0,0
1532,129,4986,15834,2730,0,0,0,0,0,0,0,0,0,0,0
1533,129,5054,15728,2504,0,0,0,0,0,0,0,0,0,0,0
1534,129,5158,15542,2518,0,0,0,0,0,0,0,0,0,0,0
1535,129,4936,15614,2574,0,0,0,0,0,0,0,0,0,0,0
1536,129,4938,15604,2626,0,0,0,0,0,0,0,0,0,0,0
1537,129,4960,15618,2678,0,0,0,0,0,0,0,0,0,0,0
1538,129,4874,15522,2530,0,0,0,0,0,0,0,0,0,0,0
1539,129,5046,15452,2646,0,0,0,0,0,0,0,0,0,0,0
1540,129,5206,15566,2704,0,0,0,0,0,0,0,0,0,0,0
1541,129,4860,15500,2534,0,0,0,0,0,0,0,0,0,0,0
1542,129,4990,15750,2790,0,0,0,0,0,0,0,0,0,0,0
1543,129,5104,15856,2662,0,0,0,0,0,0,0,0,0,0,0
1544,129,5114,15718,2774,0,0,0,0,0,0,0,0,0,0,0
1545,129,5152,15488,2478,0,0,0,0,0,0,0,0,0,0,0
1546,129,5424,15382,2554,0,0,0,0,0,0,0,0,0,0,0
1547,129,5270,15438,2688,0,0,0,0,0,0,0,0,0,0,0
1548,129,5028,15680,2692,0,0,0,0,0,0,0,0,0,0,0
1549,129,5144,15594,2680,0,0,0,0,0,0,0,0,0,0,0
1550,129,5156,15280,2864,0,0,0,0,0,0,0,0,0,0,0
1551,129,5160,15372,2732,0,0,0,0,0,0,0,0,0,0,0
1552,129,5196,15662,2694,0,0,0,0,0,0,0,0,0,0,0
1553,129,5138,15316,2544,0,0,0,0,0,0,0,0,0,0,0
1554,129,5204,15460,2758,0,0,0,0,0,0,0,0,0,0,0
1555,129,5298,15560,2384,0,0,0,0,0,0,0,0,0,0,0
1556,129,5140,15642,2732,0,0,0,0,0,0,0,0,0,0,0
1557,129,4960,15470,2690,0,0,0,0,0,0,0,0,0,0,0
1558,129,5318,15456,2714,0,0,0,0,0,0,0,0,0,0,0
1559,129,5376,15576,2570,0,0,0,0,0,0,0,0,0,0,0
1560,129,5164,15526,2530,0,0,0,0,0,0,0,0,0,0,0
1561,129,5036,15732,2576,0,0,0,0,0,0,0,0,0,0,0
1562,129,5126,15326,2596,0,0,0,0,0,0,0,0,0,0,0
1563,129,5184,15504,2776,0,0,0,0,0,0,0,0,0,0,0
1564,129,5104,15546,2500,0,0,0,0,0,0,0,0,0,0,0
1565,129,5094,15820,2570,0,0,0,0,0,0,0,0,0,0,0
1566,129,5214,15512,2680,0,0,0,0,0,0,0,0,0,0,0
1567,129,5112,15470,2478,0,0,0,0,0,0,0,0,0,0,0
1568,129,5000,15518,2668,0,0,0,0,0,0,0,0,0,0,0
1569,129,4934,15734,2628,0,0,0,0,0,0,0,0,0,0,0
1570,129,4930,15472,2684,0,0,0,0,0,0,0,0,0,0,0
1571,129,5102,15384,2744,0,0,0,0,0,0,0,0,0,0,0
1572,129,4978,15732,2600,0,0,0,0,0,0,0,0,0,0,0
1573,129,4890,15658,2330,0,0,0,0,0,0,0,0,0,0,0
1574,129,5110,15624,2830,0,0,0,0,0,0,0,0,0,0,0
1575,129,5070,15594,2646,0,0,0,0,0,0,0,0,0,0,0
1576,129,5040,15612,2726,0,0,0,0,0,0,0,0,0,0,0
1577,129,4752,15590,2544,0,0,0,0,0,0,0,0,0,0,0
1578,129,5018,15794,2664,0,0,0,0,0,0,0,0,0,0,0
1579,129,5068,15530,2618,0,0,0,0,0,0,0,0,0,0,0
1580,129,4996,15418,2478,0,0,0,0,0,0,0,0,0,0,0
1581,129,5014,15570,2600,0,0,0,0,0,0,0,0,0,0,0
1582,129,4852,15468,2784,0,0,0,0,0,0,0,0,0,0,0
1583,129,4956,15444,2560,0,0,0,0,0,0,0,0,0,0,0
1584,129,4966,15804,2704,0,0,0,0,0,0,0,0,0,0,0
1585,129,4916,15422,2654,0,0,0,0,0,0,0,0,0,0,0
1586,129,4896,15460,2538,0,0,0,0,0,0,0,0,0,0,0
1587,129,4986,15582,2628,0,0,0,0,0,0,0,0,0,0,0
1588,129,4882,15558,2644,0,0,0,0,0,0,0,0,0,0,0
1589,129,5034,15578,2550,0,0,0,0,0,0,0,0,0,0,0
1590,129,4952,15588,2884,0,0,0,0,0,0,0,0,0,0,0
1591,129,5052,15638,2628,0,0,0,0,0,0,0,0,0,0,0
1592,129,4886,15690,2732,0,0,0,0,0,0,0,0,0,0,0
1593,129,5054,15826,2464,0,0,0,0,0,0,0,0,0,0,0
1594,129,4914,15654,2614,0,0,0,0,0,0,0,0,0,0,0
1595,129,4940,15402,2396,0,0,0,0,0,0,0,0,0,0,0
1596,129,4986,15578,2736,0,0,0,0,0,0,0,0,0,0,0
1597,129,5144,15600,2628,0,0,0,0,0,0,0,0,0,0,0
1598,129,4864,15660,2788,0,0,0,0,0,0,0,0,0,0,0
1599,129,4464,15628,2586,0,0,0,0,0,0,0,0,0,0,0
1600,129,4760,15788,2566,0,0,0,0,0,0,0,0,0,0,0
1601,129,4804,15664,2560,0,0,0,0,0,0,0,0,0,0,0
1602,129,4840,15748,2696,0,0,0,0,0,0,0,0,0,0,0
1603,129,4864,15804,2748,0,0,0,0,0,0,0,0,0,0,0
1604,129,4964,15634,2874,0,0,0,0,0,0,0,0,0,0,0
1605,129,5034,15352,2576,0,0,0,0,0,0,0,0,0,0,0
