ProgrNum,PacketType,AccX,AccY,AccZ,GyrX,GyrY,GyrZ,MagX,MagY,MagZ,Q0,Q1,Q2,Q3,Vbat
0,129,864,16390,976,0,0,0,0,0,0,0,0,0,0,0
1,129,958,16520,956,0,0,0,0,0,0,0,0,0,0,0
2,129,920,16410,928,0,0,0,0,0,0,0,0,0,0,0
3,129,898,16452,774,0,0,0,0,0,0,0,0,0,0,0
4,129,942,16450,936,0,0,0,0,0,0,0,0,0,0,0
5,129,844,16478,866,0,0,0,0,0,0,0,0,0,0,0
6,129,806,16420,788,0,0,0,0,0,0,0,0,0,0,0
7,129,876,16480,908,0,0,0,0,0,0,0,0,0,0,0
8,129,758,16432,934,0,0,0,0,0,0,0,0,0,0,0
9,129,822,16362,906,0,0,0,0,0,0,0,0,0,0,0
10,129,842,16506,1074,0,0,0,0,0,0,0,0,0,0,0
11,129,778,16424,1082,0,0,0,0,0,0,0,0,0,0,0
12,129,840,16460,1066,0,0,0,0,0,0,0,0,0,0,0
13,129,754,16430,1068,0,0,0,0,0,0,0,0,0,0,0
14,129,810,16420,1196,0,0,0,0,0,0,0,0,0,0,0
15,129,684,16408,1170,0,0,0,0,0,0,0,0,0,0,0
16,129,752,16382,1098,0,0,0,0,0,0,0,0,0,0,0
17,129,776,16344,1156,0,0,0,0,0,0,0,0,0,0,0
18,129,780,16464,1028,0,0,0,0,0,0,0,0,0,0,0
19,129,686,16346,1126,0,0,0,0,0,0,0,0,0,0,0
20,129,660,16394,1176,0,0,0,0,0,0,0,0,0,0,0
21,129,726,16494,1108,0,0,0,0,0,0,0,0,0,0,0
22,129,628,16490,1174,0,0,0,0,0,0,0,0,0,0,0
23,129,660,16346,1170,0,0,0,0,0,0,0,0,0,0,0
24,129,576,16480,1204,0,0,0,0,0,0,0,0,0,0,0
25,129,672,16414,1180,0,0,0,0,0,0,0,0,0,0,0
26,129,576,16500,1344,0,0,0,0,0,0,0,0,0,0,0
27,129,616,16396,1276,0,0,0,0,0,0,0,0,0,0,0
28,129,574,16496,1176,0,0,0,0,0,0,0,0,0,0,0
29,129,650,16456,1222,0,0,0,0,0,0,0,0,0,0,0
30,129,538,16618,1002,0,0,0,0,0,0,0,0,0,0,0
31,129,364,16330,1362,0,0,0,0,0,0,0,0,0,0,0
32,129,244,16294,1990,0,0,0,0,0,0,0,0,0,0,0
33,129,190,16288,1998,0,0,0,0,0,0,0,0,0,0,0
34,129,218,16184,2292,0,0,0,0,0,0,0,0,0,0,0
35,129,220,16260,2104,0,0,0,0,0,0,0,0,0,0,0
36,129,400,16388,1986,0,0,0,0,0,0,0,0,0,0,0
37,129,470,16330,2274,0,0,0,0,0,0,0,0,0,0,0
38,129,536,16456,2160,0,0,0,0,0,0,0,0,0,0,0
39,129,346,16288,1962,0,0,0,0,0,0,0,0,0,0,0
40,129,364,16260,1590,0,0,0,0,0,0,0,0,0,0,0
41,129,506,16350,1432,0,0,0,0,0,0,0,0,0,0,0
42,129,676,16446,1564,0,0,0,0,0,0,0,0,0,0,0
43,129,648,16518,1382,0,0,0,0,0,0,0,0,0,0,0
44,129,550,16414,960,0,0,0,0,0,0,0,0,0,0,0
45,129,488,16410,696,0,0,0,0,0,0,0,0,0,0,0
46,129,670,16530,796,0,0,0,0,0,0,0,0,0,0,0
47,129,864,16526,770,0,0,0,0,0,0,0,0,0,0,0
48,129,886,16558,850,0,0,0,0,0,0,0,0,0,0,0
49,129,768,16584,960,0,0,0,0,0,0,0,0,0,0,0
50,129,618,16448,1142,0,0,0,0,0,0,0,0,0,0,0
51,129,476,16426,1220,0,0,0,0,0,0,0,0,0,0,0
52,129,302,16290,1398,0,0,0,0,0,0,0,0,0,0,0
53,129,390,16372,1696,0,0,0,0,0,0,0,0,0,0,0
54,129,468,16464,1580,0,0,0,0,0,0,0,0,0,0,0
55,129,450,16448,1640,0,0,0,0,0,0,0,0,0,0,0
56,129,476,16368,1528,0,0,0,0,0,0,0,0,0,0,0
57,129,500,16420,1442,0,0,0,0,0,0,0,0,0,0,0
58,129,498,16460,1244,0,0,0,0,0,0,0,0,0,0,0
59,129,618,16458,1012,0,0,0,0,0,0,0,0,0,0,0
60,129,724,16538,900,0,0,0,0,0,0,0,0,0,0,0
61,129,724,16506,628,0,0,0,0,0,0,0,0,0,0,0
62,129,548,16550,528,0,0,0,0,0,0,0,0,0,0,0
63,129,574,16468,384,0,0,0,0,0,0,0,0,0,0,0
64,129,470,16494,592,0,0,0,0,0,0,0,0,0,0,0
65,129,476,16384,620,0,0,0,0,0,0,0,0,0,0,0
66,129,436,16482,854,0,0,0,0,0,0,0,0,0,0,0
67,129,432,16478,902,0,0,0,0,0,0,0,0,0,0,0
68,129,482,16430,800,0,0,0,0,0,0,0,0,0,0,0
69,129,558,16478,950,0,0,0,0,0,0,0,0,0,0,0
70,129,444,16488,734,0,0,0,0,0,0,0,0,0,0,0
71,129,316,16430,872,0,0,0,0,0,0,0,0,0,0,0
72,129,278,16426,930,0,0,0,0,0,0,0,0,0,0,0
73,129,380,16500,692,0,0,0,0,0,0,0,0,0,0,0
74,129,336,16460,904,0,0,0,0,0,0,0,0,0,0,0
75,129,322,16476,724,0,0,0,0,0,0,0,0,0,0,0
76,129,292,16456,644,0,0,0,0,0,0,0,0,0,0,0
77,129,302,16514,662,0,0,0,0,0,0,0,0,0,0,0
78,129,358,16442,948,0,0,0,0,0,0,0,0,0,0,0
79,129,386,16444,906,0,0,0,0,0,0,0,0,0,0,0
80,129,428,16464,854,0,0,0,0,0,0,0,0,0,0,0
81,129,468,16370,1214,0,0,0,0,0,0,0,0,0,0,0
82,129,506,16438,1174,0,0,0,0,0,0,0,0,0,0,0
83,129,416,16520,1380,0,0,0,0,0,0,0,0,0,0,0
84,129,358,16478,1414,0,0,0,0,0,0,0,0,0,0,0
85,129,416,16326,1724,0,0,0,0,0,0,0,0,0,0,0
86,129,250,16396,2014,0,0,0,0,0,0,0,0,0,0,0
87,129,186,16298,1966,0,0,0,0,0,0,0,0,0,0,0
88,129,202,16354,2298,0,0,0,0,0,0,0,0,0,0,0
89,129,186,16298,2200,0,0,0,0,0,0,0,0,0,0,0
90,129,190,16340,2372,0,0,0,0,0,0,0,0,0,0,0
91,129,196,16276,2390,0,0,0,0,0,0,0,0,0,0,0
92,129,242,16420,2308,0,0,0,0,0,0,0,0,0,0,0
93,129,358,16398,2128,0,0,0,0,0,0,0,0,0,0,0
94,129,292,16236,2088,0,0,0,0,0,0,0,0,0,0,0
95,129,210,16368,1986,0,0,0,0,0,0,0,0,0,0,0
96,129,216,16360,1758,0,0,0,0,0,0,0,0,0,0,0
97,129,258,16386,1714,0,0,0,0,0,0,0,0,0,0,0
98,129,232,16326,1854,0,0,0,0,0,0,0,0,0,0,0
99,129,276,16456,1708,0,0,0,0,0,0,0,0,0,0,0
100,129,300,16512,1554,0,0,0,0,0,0,0,0,0,0,0
101,129,386,16474,1358,0,0,0,0,0,0,0,0,0,0,0
102,129,400,16404,1516,0,0,0,0,0,0,0,0,0,0,0
103,129,374,16398,1408,0,0,0,0,0,0,0,0,0,0,0
104,129,484,16454,1196,0,0,0,0,0,0,0,0,0,0,0
105,129,422,16456,1086,0,0,0,0,0,0,0,0,0,0,0
106,129,398,16418,1228,0,0,0,0,0,0,0,0,0,0,0
107,129,442,16428,902,0,0,0,0,0,0,0,0,0,0,0
108,129,398,16428,1212,0,0,0,0,0,0,0,0,0,0,0
109,129,428,16452,1164,0,0,0,0,0,0,0,0,0,0,0
110,129,378,16408,1148,0,0,0,0,0,0,0,0,0,0,0
111,129,246,16394,1318,0,0,0,0,0,0,0,0,0,0,0
112,129,356,16392,1528,0,0,0,0,0,0,0,0,0,0,0
113,129,390,16458,1464,0,0,0,0,0,0,0,0,0,0,0
114,129,352,16472,1320,0,0,0,0,0,0,0,0,0,0,0
115,129,362,16402,1298,0,0,0,0,0,0,0,0,0,0,0
116,129,298,16408,1406,0,0,0,0,0,0,0,0,0,0,0
117,129,212,16346,1340,0,0,0,0,0,0,0,0,0,0,0
118,129,256,16432,1482,0,0,0,0,0,0,0,0,0,0,0
119,129,316,16406,1372,0,0,0,0,0,0,0,0,0,0,0
120,129,398,16560,812,0,0,0,0,0,0,0,0,0,0,0
121,129,312,16524,490,0,0,0,0,0,0,0,0,0,0,0
122,129,476,16582,672,0,0,0,0,0,0,0,0,0,0,0
123,129,508,16586,620,0,0,0,0,0,0,0,0,0,0,0
124,129,374,16432,868,0,0,0,0,0,0,0,0,0,0,0
125,129,408,16444,980,0,0,0,0,0,0,0,0,0,0,0
126,129,434,16514,1370,0,0,0,0,0,0,0,0,0,0,0
127,129,286,16468,1290,0,0,0,0,0,0,0,0,0,0,0
128,129,240,16498,1394,0,0,0,0,0,0,0,0,0,0,0
129,129,236,16280,1614,0,0,0,0,0,0,0,0,0,0,0
130,129,148,16338,1726,0,0,0,0,0,0,0,0,0,0,0
131,129,138,16300,1748,0,0,0,0,0,0,0,0,0,0,0
132,129,162,16382,1526,0,0,0,0,0,0,0,0,0,0,0
133,129,238,16444,1426,0,0,0,0,0,0,0,0,0,0,0
134,129,312,16416,1530,0,0,0,0,0,0,0,0,0,0,0
135,129,272,16386,1658,0,0,0,0,0,0,0,0,0,0,0
136,129,202,16382,1420,0,0,0,0,0,0,0,0,0,0,0
137,129,190,16438,1434,0,0,0,0,0,0,0,0,0,0,0
138,129,252,16412,1372,0,0,0,0,0,0,0,0,0,0,0
139,129,212,16452,1234,0,0,0,0,0,0,0,0,0,0,0
140,129,420,16482,1270,0,0,0,0,0,0,0,0,0,0,0
141,129,452,16458,1488,0,0,0,0,0,0,0,0,0,0,0
142,129,432,16384,1446,0,0,0,0,0,0,0,0,0,0,0
143,129,366,16450,1422,0,0,0,0,0,0,0,0,0,0,0
144,129,524,16382,1414,0,0,0,0,0,0,0,0,0,0,0
145,129,524,16356,1686,0,0,0,0,0,0,0,0,0,0,0
146,129,524,16458,1656,0,0,0,0,0,0,0,0,0,0,0
147,129,444,16386,1556,0,0,0,0,0,0,0,0,0,0,0
148,129,370,16358,1612,0,0,0,0,0,0,0,0,0,0,0
149,129,352,16364,1434,0,0,0,0,0,0,0,0,0,0,0
150,129,396,16390,1254,0,0,0,0,0,0,0,0,0,0,0
151,129,438,16494,1084,0,0,0,0,0,0,0,0,0,0,0
152,129,466,16486,958,0,0,0,0,0,0,0,0,0,0,0
153,129,470,16428,726,0,0,0,0,0,0,0,0,0,0,0
154,129,444,16494,666,0,0,0,0,0,0,0,0,0,0,0
155,129,496,16544,632,0,0,0,0,0,0,0,0,0,0,0
156,129,562,16520,742,0,0,0,0,0,0,0,0,0,0,0
157,129,590,16452,1116,0,0,0,0,0,0,0,0,0,0,0
158,129,540,16532,1072,0,0,0,0,0,0,0,0,0,0,0
159,129,452,16448,1262,0,0,0,0,0,0,0,0,0,0,0
160,129,386,16396,1452,0,0,0,0,0,0,0,0,0,0,0
161,129,406,16328,1710,0,0,0,0,0,0,0,0,0,0,0
162,129,402,16398,1774,0,0,0,0,0,0,0,0,0,0,0
163,129,316,16428,1598,0,0,0,0,0,0,0,0,0,0,0
164,129,500,16520,1826,0,0,0,0,0,0,0,0,0,0,0
165,129,366,16222,1954,0,0,0,0,0,0,0,0,0,0,0
166,129,294,16778,2106,0,0,0,0,0,0,0,0,0,0,0
167,129,308,16286,2244,0,0,0,0,0,0,0,0,0,0,0
168,129,304,16542,2592,0,0,0,0,0,0,0,0,0,0,0
169,129,4512,14714,8854,0,0,0,0,0,0,0,0,0,0,0
170,129,-160,16738,1898,0,0,0,0,0,0,0,0,0,0,0
171,129,524,16164,3326,0,0,0,0,0,0,0,0,0,0,0
172,129,1506,15888,2892,0,0,0,0,0,0,0,0,0,0,0
173,129,-492,16536,2164,0,0,0,0,0,0,0,0,0,0,0
174,129,304,16260,2568,0,0,0,0,0,0,0,0,0,0,0
175,129,416,16318,2124,0,0,0,0,0,0,0,0,0,0,0
176,129,482,16434,2072,0,0,0,0,0,0,0,0,0,0,0
177,129,506,16426,1568,0,0,0,0,0,0,0,0,0,0,0
178,129,546,16510,1440,0,0,0,0,0,0,0,0,0,0,0
179,129,370,16482,1036,0,0,0,0,0,0,0,0,0,0,0
180,129,368,16510,628,0,0,0,0,0,0,0,0,0,0,0
181,129,370,16456,852,0,0,0,0,0,0,0,0,0,0,0
182,129,450,16494,928,0,0,0,0,0,0,0,0,0,0,0
183,129,526,16388,1296,0,0,0,0,0,0,0,0,0,0,0
184,129,-9338,19296,-904,0,0,0,0,0,0,0,0,0,0,0
185,129,2416,15964,2284,0,0,0,0,0,0,0,0,0,0,0
186,129,260,16218,1056,0,0,0,0,0,0,0,0,0,0,0
187,129,-282,16748,1024,0,0,0,0,0,0,0,0,0,0,0
188,129,1312,15880,2966,0,0,0,0,0,0,0,0,0,0,0
189,129,302,16268,2448,0,0,0,0,0,0,0,0,0,0,0
190,129,306,16382,2494,0,0,0,0,0,0,0,0,0,0,0
191,129,356,16266,2558,0,0,0,0,0,0,0,0,0,0,0
192,129,364,16320,2430,0,0,0,0,0,0,0,0,0,0,0
193,129,310,16372,2346,0,0,0,0,0,0,0,0,0,0,0
194,129,384,16382,2046,0,0,0,0,0,0,0,0,0,0,0
195,129,516,16368,1954,0,0,0,0,0,0,0,0,0,0,0
196,129,398,16394,1886,0,0,0,0,0,0,0,0,0,0,0
197,129,384,16374,1616,0,0,0,0,0,0,0,0,0,0,0
198,129,424,16406,1638,0,0,0,0,0,0,0,0,0,0,0
199,129,486,16400,1392,0,0,0,0,0,0,0,0,0,0,0
200,129,450,16424,1472,0,0,0,0,0,0,0,0,0,0,0
201,129,336,16388,1586,0,0,0,0,0,0,0,0,0,0,0
202,129,350,16324,1788,0,0,0,0,0,0,0,0,0,0,0
203,129,434,16452,1652,0,0,0,0,0,0,0,0,0,0,0
204,129,432,16276,1924,0,0,0,0,0,0,0,0,0,0,0
205,129,374,16284,2028,0,0,0,0,0,0,0,0,0,0,0
206,129,408,16312,2094,0,0,0,0,0,0,0,0,0,0,0
207,129,296,16308,2012,0,0,0,0,0,0,0,0,0,0,0
208,129,418,16374,1830,0,0,0,0,0,0,0,0,0,0,0
209,129,566,16370,1966,0,0,0,0,0,0,0,0,0,0,0
210,129,462,16360,1806,0,0,0,0,0,0,0,0,0,0,0
211,129,446,16444,1592,0,0,0,0,0,0,0,0,0,0,0
212,129,426,16338,1432,0,0,0,0,0,0,0,0,0,0,0
213,129,516,16470,1430,0,0,0,0,0,0,0,0,0,0,0
214,129,420,16384,1416,0,0,0,0,0,0,0,0,0,0,0
215,129,430,16380,1374,0,0,0,0,0,0,0,0,0,0,0
216,129,468,16354,1518,0,0,0,0,0,0,0,0,0,0,0
217,129,434,16392,1336,0,0,0,0,0,0,0,0,0,0,0
218,129,572,16516,1448,0,0,0,0,0,0,0,0,0,0,0
219,129,656,16460,1328,0,0,0,0,0,0,0,0,0,0,0
220,129,688,16472,1420,0,0,0,0,0,0,0,0,0,0,0
221,129,624,16416,1100,0,0,0,0,0,0,0,0,0,0,0
222,129,660,16462,1302,0,0,0,0,0,0,0,0,0,0,0
223,129,682,16426,1312,0,0,0,0,0,0,0,0,0,0,0
224,129,588,16322,1260,0,0,0,0,0,0,0,0,0,0,0
225,129,708,16406,1190,0,0,0,0,0,0,0,0,0,0,0
226,129,2564,16480,478,0,0,0,0,0,0,0,0,0,0,0
227,129,856,16426,1576,0,0,0,0,0,0,0,0,0,0,0
228,129,702,16340,1472,0,0,0,0,0,0,0,0,0,0,0
229,129,680,16524,1280,0,0,0,0,0,0,0,0,0,0,0
230,129,808,16504,1394,0,0,0,0,0,0,0,0,0,0,0
231,129,718,16524,1342,0,0,0,0,0,0,0,0,0,0,0
232,129,718,16374,1478,0,0,0,0,0,0,0,0,0,0,0
233,129,722,16478,1422,0,0,0,0,0,0,0,0,0,0,0
234,129,-13458,19384,-1308,0,0,0,0,0,0,0,0,0,0,0
235,129,728,16312,1656,0,0,0,0,0,0,0,0,0,0,0
236,129,216,16520,1054,0,0,0,0,0,0,0,0,0,0,0
237,129,968,16286,1728,0,0,0,0,0,0,0,0,0,0,0
238,129,21190,12060,7144,0,0,0,0,0,0,0,0,0,0,0
239,129,882,16410,2336,0,0,0,0,0,0,0,0,0,0,0
240,129,1112,16312,2090,0,0,0,0,0,0,0,0,0,0,0
241,129,1146,16368,1802,0,0,0,0,0,0,0,0,0,0,0
242,129,1122,16378,1802,0,0,0,0,0,0,0,0,0,0,0
243,129,18818,12650,11086,0,0,0,0,0,0,0,0,0,0,0
244,129,1582,16302,1866,0,0,0,0,0,0,0,0,0,0,0
245,129,1126,16376,1464,0,0,0,0,0,0,0,0,0,0,0
246,129,1354,16272,1754,0,0,0,0,0,0,0,0,0,0,0
247,129,-602,16558,1058,0,0,0,0,0,0,0,0,0,0,0
248,129,1518,16284,1596,0,0,0,0,0,0,0,0,0,0,0
249,129,1452,16348,1564,0,0,0,0,0,0,0,0,0,0,0
250,129,1336,16358,1602,0,0,0,0,0,0,0,0,0,0,0
251,129,1452,16396,1510,0,0,0,0,0,0,0,0,0,0,0
252,129,1502,16334,1576,0,0,0,0,0,0,0,0,0,0,0
253,129,1472,16422,1438,0,0,0,0,0,0,0,0,0,0,0
254,129,1508,16344,1506,0,0,0,0,0,0,0,0,0,0,0
255,129,1510,16300,1392,0,0,0,0,0,0,0,0,0,0,0
256,129,1466,16452,1568,0,0,0,0,0,0,0,0,0,0,0
257,129,-4608,16544,262,0,0,0,0,0,0,0,0,0,0,0
258,129,262,16462,1132,0,0,0,0,0,0,0,0,0,0,0
259,129,5050,16160,2138,0,0,0,0,0,0,0,0,0,0,0
260,129,3838,16180,2504,0,0,0,0,0,0,0,0,0,0,0
261,129,1882,16314,1516,0,0,0,0,0,0,0,0,0,0,0
262,129,1070,16256,908,0,0,0,0,0,0,0,0,0,0,0
263,129,-318,16482,760,0,0,0,0,0,0,0,0,0,0,0
264,129,3322,16074,1866,0,0,0,0,0,0,0,0,0,0,0
265,129,714,16500,1424,0,0,0,0,0,0,0,0,0,0,0
266,129,2824,16234,1610,0,0,0,0,0,0,0,0,0,0,0
267,129,2814,16120,1770,0,0,0,0,0,0,0,0,0,0,0
268,129,19728,14372,3508,0,0,0,0,0,0,0,0,0,0,0
269,129,3046,16230,192,0,0,0,0,0,0,0,0,0,0,0
270,129,-708,16742,1316,0,0,0,0,0,0,0,0,0,0,0
271,129,5416,15640,1310,0,0,0,0,0,0,0,0,0,0,0
272,129,5054,15874,1160,0,0,0,0,0,0,0,0,0,0,0
273,129,5008,15498,1158,0,0,0,0,0,0,0,0,0,0,0
274,129,2330,16674,966,0,0,0,0,0,0,0,0,0,0,0
275,129,5766,15272,346,0,0,0,0,0,0,0,0,0,0,0
276,129,6510,15162,818,0,0,0,0,0,0,0,0,0,0,0
277,129,9382,13848,-348,0,0,0,0,0,0,0,0,0,0,0
278,129,5774,15242,2090,0,0,0,0,0,0,0,0,0,0,0
279,129,7218,14494,1646,0,0,0,0,0,0,0,0,0,0,0
280,129,7522,14750,1212,0,0,0,0,0,0,0,0,0,0,0
281,129,8724,13080,-538,0,0,0,0,0,0,0,0,0,0,0
282,129,9358,13408,4,0,0,0,0,0,0,0,0,0,0,0
283,129,7544,14524,1076,0,0,0,0,0,0,0,0,0,0,0
284,129,8350,14544,-804,0,0,0,0,0,0,0,0,0,0,0
285,129,8270,14206,62,0,0,0,0,0,0,0,0,0,0,0
286,129,9214,14368,1252,0,0,0,0,0,0,0,0,0,0,0
287,129,9762,14586,1562,0,0,0,0,0,0,0,0,0,0,0
288,129,9944,14638,-164,0,0,0,0,0,0,0,0,0,0,0
289,129,9784,14222,-976,0,0,0,0,0,0,0,0,0,0,0
290,129,10600,13854,1314,0,0,0,0,0,0,0,0,0,0,0
291,129,12032,14192,244,0,0,0,0,0,0,0,0,0,0,0
292,129,10338,13360,426,0,0,0,0,0,0,0,0,0,0,0
293,129,9884,12648,1220,0,0,0,0,0,0,0,0,0,0,0
294,129,10776,12204,-244,0,0,0,0,0,0,0,0,0,0,0
295,129,10670,12126,216,0,0,0,0,0,0,0,0,0,0,0
296,129,10690,11638,690,0,0,0,0,0,0,0,0,0,0,0
297,129,10626,11482,722,0,0,0,0,0,0,0,0,0,0,0
298,129,11480,11316,80,0,0,0,0,0,0,0,0,0,0,0
299,129,12692,11194,668,0,0,0,0,0,0,0,0,0,0,0
300,129,12186,10570,1134,0,0,0,0,0,0,0,0,0,0,0
301,129,11284,10378,632,0,0,0,0,0,0,0,0,0,0,0
302,129,13408,11090,-1088,0,0,0,0,0,0,0,0,0,0,0
303,129,14484,11054,-300,0,0,0,0,0,0,0,0,0,0,0
304,129,13688,10010,2144,0,0,0,0,0,0,0,0,0,0,0
305,129,13172,9152,2482,0,0,0,0,0,0,0,0,0,0,0
306,129,12670,9152,480,0,0,0,0,0,0,0,0,0,0,0
307,129,12558,9114,-1806,0,0,0,0,0,0,0,0,0,0,0
308,129,13598,8736,66,0,0,0,0,0,0,0,0,0,0,0
309,129,13396,8518,2054,0,0,0,0,0,0,0,0,0,0,0
310,129,13716,8210,820,0,0,0,0,0,0,0,0,0,0,0
311,129,14178,8168,232,0,0,0,0,0,0,0,0,0,0,0
312,129,15282,8500,670,0,0,0,0,0,0,0,0,0,0,0
313,129,15224,8460,1676,0,0,0,0,0,0,0,0,0,0,0
314,129,14520,7980,946,0,0,0,0,0,0,0,0,0,0,0
315,129,14308,7442,304,0,0,0,0,0,0,0,0,0,0,0
316,129,15000,7466,1040,0,0,0,0,0,0,0,0,0,0,0
317,129,15308,7572,714,0,0,0,0,0,0,0,0,0,0,0
318,129,14762,7098,910,0,0,0,0,0,0,0,0,0,0,0
319,129,14252,6708,822,0,0,0,0,0,0,0,0,0,0,0
320,129,14726,6654,64,0,0,0,0,0,0,0,0,0,0,0
321,129,15152,6588,250,0,0,0,0,0,0,0,0,0,0,0
322,129,15228,6672,1086,0,0,0,0,0,0,0,0,0,0,0
323,129,15186,6428,838,0,0,0,0,0,0,0,0,0,0,0
324,129,14810,6054,-42,0,0,0,0,0,0,0,0,0,0,0
325,129,15382,5834,646,0,0,0,0,0,0,0,0,0,0,0
326,129,16052,5878,1618,0,0,0,0,0,0,0,0,0,0,0
327,129,15954,5852,980,0,0,0,0,0,0,0,0,0,0,0
328,129,15650,5350,524,0,0,0,0,0,0,0,0,0,0,0
329,129,15748,5018,734,0,0,0,0,0,0,0,0,0,0,0
330,129,17320,5520,276,0,0,0,0,0,0,0,0,0,0,0
331,129,16436,5416,754,0,0,0,0,0,0,0,0,0,0,0
332,129,15176,4424,2396,0,0,0,0,0,0,0,0,0,0,0
333,129,14724,3722,396,0,0,0,0,0,0,0,0,0,0,0
334,129,15278,3458,1082,0,0,0,0,0,0,0,0,0,0,0
335,129,14354,3448,1702,0,0,0,0,0,0,0,0,0,0,0
336,129,15166,3356,628,0,0,0,0,0,0,0,0,0,0,0
337,129,15578,3274,742,0,0,0,0,0,0,0,0,0,0,0
338,129,15876,3104,1790,0,0,0,0,0,0,0,0,0,0,0
339,129,16578,3318,834,0,0,0,0,0,0,0,0,0,0,0
340,129,16354,3170,1006,0,0,0,0,0,0,0,0,0,0,0
341,129,15548,3014,614,0,0,0,0,0,0,0,0,0,0,0
342,129,16270,2792,490,0,0,0,0,0,0,0,0,0,0,0
343,129,16868,2892,1108,0,0,0,0,0,0,0,0,0,0,0
344,129,16418,2856,1870,0,0,0,0,0,0,0,0,0,0,0
345,129,16194,2450,698,0,0,0,0,0,0,0,0,0,0,0
346,129,16062,2292,496,0,0,0,0,0,0,0,0,0,0,0
347,129,16716,2178,1426,0,0,0,0,0,0,0,0,0,0,0
348,129,16990,1986,606,0,0,0,0,0,0,0,0,0,0,0
349,129,15762,1610,1014,0,0,0,0,0,0,0,0,0,0,0
350,129,14452,1102,1476,0,0,0,0,0,0,0,0,0,0,0
351,129,15624,1232,850,0,0,0,0,0,0,0,0,0,0,0
352,129,16640,1644,1004,0,0,0,0,0,0,0,0,0,0,0
353,129,17620,1806,412,0,0,0,0,0,0,0,0,0,0,0
354,129,16238,1162,1206,0,0,0,0,0,0,0,0,0,0,0
355,129,15154,696,620,0,0,0,0,0,0,0,0,0,0,0
356,129,16486,1056,812,0,0,0,0,0,0,0,0,0,0,0
357,129,16926,1330,1370,0,0,0,0,0,0,0,0,0,0,0
358,129,17152,1238,680,0,0,0,0,0,0,0,0,0,0,0
359,129,16344,594,1286,0,0,0,0,0,0,0,0,0,0,0
360,129,15584,554,930,0,0,0,0,0,0,0,0,0,0,0
361,129,16286,696,500,0,0,0,0,0,0,0,0,0,0,0
362,129,16376,750,1638,0,0,0,0,0,0,0,0,0,0,0
363,129,16526,792,750,0,0,0,0,0,0,0,0,0,0,0
364,129,16226,548,688,0,0,0,0,0,0,0,0,0,0,0
365,129,16448,452,930,0,0,0,0,0,0,0,0,0,0,0
366,129,16610,608,236,0,0,0,0,0,0,0,0,0,0,0
367,129,16528,446,1262,0,0,0,0,0,0,0,0,0,0,0
368,129,15858,274,1038,0,0,0,0,0,0,0,0,0,0,0
369,129,15332,256,766,0,0,0,0,0,0,0,0,0,0,0
370,129,16354,312,474,0,0,0,0,0,0,0,0,0,0,0
371,129,16788,478,1090,0,0,0,0,0,0,0,0,0,0,0
372,129,17350,482,680,0,0,0,0,0,0,0,0,0,0,0
373,129,16392,386,896,0,0,0,0,0,0,0,0,0,0,0
374,129,15194,104,1240,0,0,0,0,0,0,0,0,0,0,0
375,129,12054,-26,242,0,0,0,0,0,0,0,0,0,0,0
376,129,16486,374,668,0,0,0,0,0,0,0,0,0,0,0
377,129,16402,452,1524,0,0,0,0,0,0,0,0,0,0,0
378,129,16340,198,-122,0,0,0,0,0,0,0,0,0,0,0
379,129,16670,160,2132,0,0,0,0,0,0,0,0,0,0,0
380,129,16014,82,1262,0,0,0,0,0,0,0,0,0,0,0
381,129,16510,250,1086,0,0,0,0,0,0,0,0,0,0,0
382,129,16892,192,882,0,0,0,0,0,0,0,0,0,0,0
383,129,16516,94,684,0,0,0,0,0,0,0,0,0,0,0
384,129,16246,126,1304,0,0,0,0,0,0,0,0,0,0,0
385,129,15852,-132,1604,0,0,0,0,0,0,0,0,0,0,0
386,129,16188,62,1130,0,0,0,0,0,0,0,0,0,0,0
387,129,16606,240,1046,0,0,0,0,0,0,0,0,0,0,0
388,129,16376,130,1120,0,0,0,0,0,0,0,0,0,0,0
389,129,16300,2,1168,0,0,0,0,0,0,0,0,0,0,0
390,129,16640,150,522,0,0,0,0,0,0,0,0,0,0,0
391,129,16194,48,1086,0,0,0,0,0,0,0,0,0,0,0
392,129,15912,96,1184,0,0,0,0,0,0,0,0,0,0,0
393,129,16808,126,534,0,0,0,0,0,0,0,0,0,0,0
394,129,16908,100,674,0,0,0,0,0,0,0,0,0,0,0
395,129,16170,-58,1228,0,0,0,0,0,0,0,0,0,0,0
396,129,15700,-76,1708,0,0,0,0,0,0,0,0,0,0,0
397,129,16042,112,1476,0,0,0,0,0,0,0,0,0,0,0
398,129,16838,268,934,0,0,0,0,0,0,0,0,0,0,0
399,129,16368,290,1522,0,0,0,0,0,0,0,0,0,0,0
400,129,16456,38,1022,0,0,0,0,0,0,0,0,0,0,0
401,129,16100,104,700,0,0,0,0,0,0,0,0,0,0,0
402,129,16120,26,1158,0,0,0,0,0,0,0,0,0,0,0
403,129,16148,80,816,0,0,0,0,0,0,0,0,0,0,0
404,129,16598,178,1030,0,0,0,0,0,0,0,0,0,0,0
405,129,17380,376,1212,0,0,0,0,0,0,0,0,0,0,0
406,129,16598,166,792,0,0,0,0,0,0,0,0,0,0,0
407,129,15942,-52,1042,0,0,0,0,0,0,0,0,0,0,0
408,129,15824,98,808,0,0,0,0,0,0,0,0,0,0,0
409,129,16114,130,814,0,0,0,0,0,0,0,0,0,0,0
410,129,16788,174,556,0,0,0,0,0,0,0,0,0,0,0
411,129,16648,244,1094,0,0,0,0,0,0,0,0,0,0,0
412,129,16270,108,730,0,0,0,0,0,0,0,0,0,0,0
413,129,15954,52,1154,0,0,0,0,0,0,0,0,0,0,0
414,129,16194,204,1168,0,0,0,0,0,0,0,0,0,0,0
415,129,16498,394,496,0,0,0,0,0,0,0,0,0,0,0
416,129,17122,396,622,0,0,0,0,0,0,0,0,0,0,0
417,129,16582,282,996,0,0,0,0,0,0,0,0,0,0,0
418,129,16382,338,1222,0,0,0,0,0,0,0,0,0,0,0
419,129,16190,216,1328,0,0,0,0,0,0,0,0,0,0,0
420,129,16188,556,900,0,0,0,0,0,0,0,0,0,0,0
421,129,16614,496,732,0,0,0,0,0,0,0,0,0,0,0
422,129,16488,500,1080,0,0,0,0,0,0,0,0,0,0,0
423,129,16406,396,1134,0,0,0,0,0,0,0,0,0,0,0
424,129,16318,334,966,0,0,0,0,0,0,0,0,0,0,0
425,129,16768,506,1268,0,0,0,0,0,0,0,0,0,0,0
426,129,16600,608,624,0,0,0,0,0,0,0,0,0,0,0
427,129,16506,388,736,0,0,0,0,0,0,0,0,0,0,0
428,129,15690,238,866,0,0,0,0,0,0,0,0,0,0,0
429,129,15834,214,1048,0,0,0,0,0,0,0,0,0,0,0
430,129,16994,530,866,0,0,0,0,0,0,0,0,0,0,0
431,129,17122,518,362,0,0,0,0,0,0,0,0,0,0,0
432,129,16492,306,1264,0,0,0,0,0,0,0,0,0,0,0
433,129,15510,146,834,0,0,0,0,0,0,0,0,0,0,0
434,129,15200,202,1514,0,0,0,0,0,0,0,0,0,0,0
435,129,16340,568,792,0,0,0,0,0,0,0,0,0,0,0
436,129,16000,586,908,0,0,0,0,0,0,0,0,0,0,0
437,129,15980,562,1156,0,0,0,0,0,0,0,0,0,0,0
438,129,16990,794,864,0,0,0,0,0,0,0,0,0,0,0
439,129,16748,936,2024,0,0,0,0,0,0,0,0,0,0,0
440,129,15882,932,246,0,0,0,0,0,0,0,0,0,0,0
441,129,16232,1026,150,0,0,0,0,0,0,0,0,0,0,0
442,129,16298,1148,668,0,0,0,0,0,0,0,0,0,0,0
443,129,16820,1390,1240,0,0,0,0,0,0,0,0,0,0,0
444,129,17272,1408,744,0,0,0,0,0,0,0,0,0,0,0
445,129,16684,1348,1142,0,0,0,0,0,0,0,0,0,0,0
446,129,16068,1022,1660,0,0,0,0,0,0,0,0,0,0,0
447,129,16172,1166,1054,0,0,0,0,0,0,0,0,0,0,0
448,129,16404,1288,346,0,0,0,0,0,0,0,0,0,0,0
449,129,16258,1166,1092,0,0,0,0,0,0,0,0,0,0,0
450,129,16380,1302,1054,0,0,0,0,0,0,0,0,0,0,0
451,129,16580,1068,1496,0,0,0,0,0,0,0,0,0,0,0
452,129,16532,1248,390,0,0,0,0,0,0,0,0,0,0,0
453,129,15876,1072,874,0,0,0,0,0,0,0,0,0,0,0
454,129,16026,1178,1072,0,0,0,0,0,0,0,0,0,0,0
455,129,16120,1292,1236,0,0,0,0,0,0,0,0,0,0,0
456,129,16672,1240,1082,0,0,0,0,0,0,0,0,0,0,0
457,129,16410,1284,646,0,0,0,0,0,0,0,0,0,0,0
458,129,15956,1396,1552,0,0,0,0,0,0,0,0,0,0,0
459,129,16438,1466,1260,0,0,0,0,0,0,0,0,0,0,0
460,129,16644,1608,842,0,0,0,0,0,0,0,0,0,0,0
461,129,16490,1462,1280,0,0,0,0,0,0,0,0,0,0,0
462,129,15870,1372,1400,0,0,0,0,0,0,0,0,0,0,0
463,129,15866,1342,1286,0,0,0,0,0,0,0,0,0,0,0
464,129,15862,1500,890,0,0,0,0,0,0,0,0,0,0,0
465,129,16418,1608,800,0,0,0,0,0,0,0,0,0,0,0
466,129,16608,1946,936,0,0,0,0,0,0,0,0,0,0,0
467,129,16552,1944,1126,0,0,0,0,0,0,0,0,0,0,0
468,129,16070,1936,1444,0,0,0,0,0,0,0,0,0,0,0
469,129,15982,1794,1286,0,0,0,0,0,0,0,0,0,0,0
470,129,16212,2314,1270,0,0,0,0,0,0,0,0,0,0,0
471,129,16558,2500,940,0,0,0,0,0,0,0,0,0,0,0
472,129,16816,2622,1130,0,0,0,0,0,0,0,0,0,0,0
473,129,15962,2504,1172,0,0,0,0,0,0,0,0,0,0,0
474,129,15960,2600,1486,0,0,0,0,0,0,0,0,0,0,0
475,129,15786,2618,1246,0,0,0,0,0,0,0,0,0,0,0
476,129,16530,2808,752,0,0,0,0,0,0,0,0,0,0,0
477,129,15582,2772,1076,0,0,0,0,0,0,0,0,0,0,0
478,129,16134,2970,856,0,0,0,0,0,0,0,0,0,0,0
479,129,17024,3194,1398,0,0,0,0,0,0,0,0,0,0,0
480,129,16950,3322,1106,0,0,0,0,0,0,0,0,0,0,0
481,129,16234,3150,1088,0,0,0,0,0,0,0,0,0,0,0
482,129,15454,3022,1514,0,0,0,0,0,0,0,0,0,0,0
483,129,15768,3202,940,0,0,0,0,0,0,0,0,0,0,0
484,129,16444,3436,814,0,0,0,0,0,0,0,0,0,0,0
485,129,16396,3348,1596,0,0,0,0,0,0,0,0,0,0,0
486,129,16456,3382,1064,0,0,0,0,0,0,0,0,0,0,0
487,129,16098,3374,1452,0,0,0,0,0,0,0,0,0,0,0
488,129,15194,3170,1230,0,0,0,0,0,0,0,0,0,0,0
489,129,15720,3356,1056,0,0,0,0,0,0,0,0,0,0,0
490,129,15386,3564,1070,0,0,0,0,0,0,0,0,0,0,0
491,129,16184,3740,1546,0,0,0,0,0,0,0,0,0,0,0
492,129,16286,3808,960,0,0,0,0,0,0,0,0,0,0,0
493,129,15710,3768,1396,0,0,0,0,0,0,0,0,0,0,0
494,129,16048,4076,838,0,0,0,0,0,0,0,0,0,0,0
495,129,16266,4120,1760,0,0,0,0,0,0,0,0,0,0,0
496,129,16348,4306,1636,0,0,0,0,0,0,0,0,0,0,0
497,129,16330,4196,976,0,0,0,0,0,0,0,0,0,0,0
498,129,15784,4006,1852,0,0,0,0,0,0,0,0,0,0,0
499,129,15790,4108,1564,0,0,0,0,0,0,0,0,0,0,0
500,129,16144,4256,1120,0,0,0,0,0,0,0,0,0,0,0
501,129,15816,4172,1264,0,0,0,0,0,0,0,0,0,0,0
502,129,15704,3988,1198,0,0,0,0,0,0,0,0,0,0,0
503,129,15714,3988,1972,0,0,0,0,0,0,0,0,0,0,0
504,129,16094,4252,1256,0,0,0,0,0,0,0,0,0,0,0
505,129,15908,4186,1022,0,0,0,0,0,0,0,0,0,0,0
506,129,15518,3904,1620,0,0,0,0,0,0,0,0,0,0,0
507,129,16068,4044,1410,0,0,0,0,0,0,0,0,0,0,0
508,129,16378,4292,1616,0,0,0,0,0,0,0,0,0,0,0
509,129,16024,4054,1056,0,0,0,0,0,0,0,0,0,0,0
510,129,15906,4052,1596,0,0,0,0,0,0,0,0,0,0,0
511,129,15766,3946,1332,0,0,0,0,0,0,0,0,0,0,0
512,129,15600,3972,2368,0,0,0,0,0,0,0,0,0,0,0
513,129,16146,4016,1138,0,0,0,0,0,0,0,0,0,0,0
514,129,15612,3780,1474,0,0,0,0,0,0,0,0,0,0,0
515,129,15534,3712,1346,0,0,0,0,0,0,0,0,0,0,0
516,129,15690,3856,1808,0,0,0,0,0,0,0,0,0,0,0
517,129,16356,3986,1124,0,0,0,0,0,0,0,0,0,0,0
518,129,16158,3854,1146,0,0,0,0,0,0,0,0,0,0,0
519,129,15664,3616,1678,0,0,0,0,0,0,0,0,0,0,0
520,129,15710,3646,1548,0,0,0,0,0,0,0,0,0,0,0
521,129,15834,3740,1824,0,0,0,0,0,0,0,0,0,0,0
522,129,15992,3700,1306,0,0,0,0,0,0,0,0,0,0,0
523,129,15912,3678,1280,0,0,0,0,0,0,0,0,0,0,0
524,129,15800,3608,2052,0,0,0,0,0,0,0,0,0,0,0
525,129,16090,3852,1608,0,0,0,0,0,0,0,0,0,0,0
526,129,16376,3856,774,0,0,0,0,0,0,0,0,0,0,0
527,129,15792,3548,1372,0,0,0,0,0,0,0,0,0,0,0
528,129,15734,3616,1456,0,0,0,0,0,0,0,0,0,0,0
529,129,15576,3520,1900,0,0,0,0,0,0,0,0,0,0,0
530,129,16244,3774,1082,0,0,0,0,0,0,0,0,0,0,0
531,129,15874,3656,1302,0,0,0,0,0,0,0,0,0,0,0
532,129,16030,3654,1572,0,0,0,0,0,0,0,0,0,0,0
533,129,15844,3622,1478,0,0,0,0,0,0,0,0,0,0,0
534,129,16546,3722,1300,0,0,0,0,0,0,0,0,0,0,0
535,129,16064,3712,948,0,0,0,0,0,0,0,0,0,0,0
536,129,15436,3456,1350,0,0,0,0,0,0,0,0,0,0,0
537,129,15600,3458,1886,0,0,0,0,0,0,0,0,0,0,0
538,129,16268,3614,1576,0,0,0,0,0,0,0,0,0,0,0
539,129,16228,3620,1142,0,0,0,0,0,0,0,0,0,0,0
540,129,16106,3570,1470,0,0,0,0,0,0,0,0,0,0,0
541,129,16076,3668,1588,0,0,0,0,0,0,0,0,0,0,0
542,129,15944,3622,1480,0,0,0,0,0,0,0,0,0,0,0
543,129,15976,3534,1248,0,0,0,0,0,0,0,0,0,0,0
544,129,15542,3426,1548,0,0,0,0,0,0,0,0,0,0,0
545,129,16180,3558,1324,0,0,0,0,0,0,0,0,0,0,0
546,129,16368,3544,1290,0,0,0,0,0,0,0,0,0,0,0
547,129,16226,3596,1692,0,0,0,0,0,0,0,0,0,0,0
548,129,15856,3558,1462,0,0,0,0,0,0,0,0,0,0,0
549,129,15674,3448,1244,0,0,0,0,0,0,0,0,0,0,0
550,129,15642,3450,1766,0,0,0,0,0,0,0,0,0,0,0
551,129,16004,3506,926,0,0,0,0,0,0,0,0,0,0,0
552,129,16422,3646,1444,0,0,0,0,0,0,0,0,0,0,0
553,129,16124,3516,1058,0,0,0,0,0,0,0,0,0,0,0
554,129,15702,3392,1434,0,0,0,0,0,0,0,0,0,0,0
555,129,15438,3276,1948,0,0,0,0,0,0,0,0,0,0,0
556,129,15822,3550,1614,0,0,0,0,0,0,0,0,0,0,0
557,129,16730,3756,924,0,0,0,0,0,0,0,0,0,0,0
558,129,16154,3550,1118,0,0,0,0,0,0,0,0,0,0,0
559,129,15808,3422,1536,0,0,0,0,0,0,0,0,0,0,0
560,129,15710,3366,1848,0,0,0,0,0,0,0,0,0,0,0
561,129,16280,3540,1632,0,0,0,0,0,0,0,0,0,0,0
562,129,16270,3622,906,0,0,0,0,0,0,0,0,0,0,0
563,129,15836,3556,1162,0,0,0,0,0,0,0,0,0,0,0
564,129,15886,3528,1848,0,0,0,0,0,0,0,0,0,0,0
565,129,16118,3524,1448,0,0,0,0,0,0,0,0,0,0,0
566,129,16222,3322,1480,0,0,0,0,0,0,0,0,0,0,0
567,129,15622,3466,1318,0,0,0,0,0,0,0,0,0,0,0
568,129,16032,3504,1430,0,0,0,0,0,0,0,0,0,0,0
569,129,16096,3524,1264,0,0,0,0,0,0,0,0,0,0,0
570,129,16108,3442,1158,0,0,0,0,0,0,0,0,0,0,0
571,129,15940,3350,1012,0,0,0,0,0,0,0,0,0,0,0
572,129,15970,3292,1574,0,0,0,0,0,0,0,0,0,0,0
573,129,16024,3334,1292,0,0,0,0,0,0,0,0,0,0,0
574,129,16288,3540,792,0,0,0,0,0,0,0,0,0,0,0
575,129,15964,3288,1364,0,0,0,0,0,0,0,0,0,0,0
576,129,15934,3282,1800,0,0,0,0,0,0,0,0,0,0,0
577,129,15812,3348,1218,0,0,0,0,0,0,0,0,0,0,0
578,129,16130,3430,1330,0,0,0,0,0,0,0,0,0,0,0
579,129,16096,3304,792,0,0,0,0,0,0,0,0,0,0,0
580,129,16068,3236,2010,0,0,0,0,0,0,0,0,0,0,0
581,129,16106,3296,1156,0,0,0,0,0,0,0,0,0,0,0
582,129,15968,3278,1588,0,0,0,0,0,0,0,0,0,0,0
583,129,15956,3222,1088,0,0,0,0,0,0,0,0,0,0,0
584,129,15826,3228,1650,0,0,0,0,0,0,0,0,0,0,0
585,129,16188,3330,1294,0,0,0,0,0,0,0,0,0,0,0
586,129,16492,3500,1122,0,0,0,0,0,0,0,0,0,0,0
587,129,16176,3244,1150,0,0,0,0,0,0,0,0,0,0,0
588,129,15784,3214,1678,0,0,0,0,0,0,0,0,0,0,0
589,129,15966,3252,1174,0,0,0,0,0,0,0,0,0,0,0
590,129,16116,3232,1336,0,0,0,0,0,0,0,0,0,0,0
591,129,16098,3238,1256,0,0,0,0,0,0,0,0,0,0,0
592,129,16288,3234,1188,0,0,0,0,0,0,0,0,0,0,0
593,129,15860,3170,1888,0,0,0,0,0,0,0,0,0,0,0
594,129,16050,3170,1342,0,0,0,0,0,0,0,0,0,0,0
595,129,16044,3220,1104,0,0,0,0,0,0,0,0,0,0,0
596,129,16018,3120,1332,0,0,0,0,0,0,0,0,0,0,0
597,129,16218,3148,1496,0,0,0,0,0,0,0,0,0,0,0
598,129,16220,3252,1420,0,0,0,0,0,0,0,0,0,0,0
599,129,16138,3148,1196,0,0,0,0,0,0,0,0,0,0,0
600,129,15990,3250,1316,0,0,0,0,0,0,0,0,0,0,0
601,129,15996,3088,1316,0,0,0,0,0,0,0,0,0,0,0
602,129,16158,3260,1666,0,0,0,0,0,0,0,0,0,0,0
603,129,16060,3194,968,0,0,0,0,0,0,0,0,0,0,0
604,129,15930,3078,1554,0,0,0,0,0,0,0,0,0,0,0
605,129,16000,3210,1258,0,0,0,0,0,0,0,0,0,0,0
606,129,16216,3220,1416,0,0,0,0,0,0,0,0,0,0,0
607,129,16046,3212,1340,0,0,0,0,0,0,0,0,0,0,0
608,129,16146,3144,1150,0,0,0,0,0,0,0,0,0,0,0
609,129,15956,3184,1464,0,0,0,0,0,0,0,0,0,0,0
610,129,15914,3084,1646,0,0,0,0,0,0,0,0,0,0,0
611,129,16082,3216,1264,0,0,0,0,0,0,0,0,0,0,0
612,129,16068,3174,1004,0,0,0,0,0,0,0,0,0,0,0
613,129,15932,3118,1574,0,0,0,0,0,0,0,0,0,0,0
614,129,16076,3272,1852,0,0,0,0,0,0,0,0,0,0,0
615,129,16424,3246,1046,0,0,0,0,0,0,0,0,0,0,0
616,129,16112,3184,1234,0,0,0,0,0,0,0,0,0,0,0
617,129,15848,3080,1564,0,0,0,0,0,0,0,0,0,0,0
618,129,16194,3250,1878,0,0,0,0,0,0,0,0,0,0,0
619,129,16016,3206,1154,0,0,0,0,0,0,0,0,0,0,0
620,129,16136,3184,1304,0,0,0,0,0,0,0,0,0,0,0
621,129,16048,3118,1128,0,0,0,0,0,0,0,0,0,0,0
622,129,16156,3216,1964,0,0,0,0,0,0,0,0,0,0,0
623,129,16432,3234,892,0,0,0,0,0,0,0,0,0,0,0
624,129,16028,3162,1230,0,0,0,0,0,0,0,0,0,0,0
625,129,15714,2920,1148,0,0,0,0,0,0,0,0,0,0,0
626,129,15772,2980,1824,0,0,0,0,0,0,0,0,0,0,0
627,129,16384,3186,1620,0,0,0,0,0,0,0,0,0,0,0
628,129,16252,3232,1094,0,0,0,0,0,0,0,0,0,0,0
629,129,15974,3076,1450,0,0,0,0,0,0,0,0,0,0,0
630,129,16034,3022,1594,0,0,0,0,0,0,0,0,0,0,0
631,129,16210,3182,1388,0,0,0,0,0,0,0,0,0,0,0
632,129,16298,3122,1060,0,0,0,0,0,0,0,0,0,0,0
633,129,16258,3080,992,0,0,0,0,0,0,0,0,0,0,0
634,129,15990,2908,1734,0,0,0,0,0,0,0,0,0,0,0
635,129,16062,3064,1256,0,0,0,0,0,0,0,0,0,0,0
636,129,16096,3090,1128,0,0,0,0,0,0,0,0,0,0,0
637,129,15808,2982,1158,0,0,0,0,0,0,0,0,0,0,0
638,129,16218,3000,1572,0,0,0,0,0,0,0,0,0,0,0
639,129,16404,2994,1568,0,0,0,0,0,0,0,0,0,0,0
640,129,16164,3086,864,0,0,0,0,0,0,0,0,0,0,0
641,129,15980,3032,1250,0,0,0,0,0,0,0,0,0,0,0
642,129,15862,2900,1698,0,0,0,0,0,0,0,0,0,0,0
643,129,16160,3006,1384,0,0,0,0,0,0,0,0,0,0,0
644,129,16102,3012,1036,0,0,0,0,0,0,0,0,0,0,0
645,129,15896,2988,1254,0,0,0,0,0,0,0,0,0,0,0
646,129,16050,2952,1600,0,0,0,0,0,0,0,0,0,0,0
647,129,15780,2942,1604,0,0,0,0,0,0,0,0,0,0,0
648,129,16030,2944,1000,0,0,0,0,0,0,0,0,0,0,0
649,129,15978,2942,1110,0,0,0,0,0,0,0,0,0,0,0
650,129,15938,3004,1408,0,0,0,0,0,0,0,0,0,0,0
651,129,16410,3116,1398,0,0,0,0,0,0,0,0,0,0,0
652,129,16340,3234,1492,0,0,0,0,0,0,0,0,0,0,0
653,129,16160,3178,1726,0,0,0,0,0,0,0,0,0,0,0
654,129,16224,3158,1798,0,0,0,0,0,0,0,0,0,0,0
655,129,16540,3118,1388,0,0,0,0,0,0,0,0,0,0,0
656,129,16132,3018,2420,0,0,0,0,0,0,0,0,0,0,0
657,129,16182,2944,1238,0,0,0,0,0,0,0,0,0,0,0
658,129,15856,2938,1424,0,0,0,0,0,0,0,0,0,0,0
659,129,15598,2950,882,0,0,0,0,0,0,0,0,0,0,0
660,129,15936,2976,202,0,0,0,0,0,0,0,0,0,0,0
661,129,16176,3058,1040,0,0,0,0,0,0,0,0,0,0,0
662,129,16316,3058,1224,0,0,0,0,0,0,0,0,0,0,0
663,129,16750,2824,1610,0,0,0,0,0,0,0,0,0,0,0
664,129,16218,2694,1984,0,0,0,0,0,0,0,0,0,0,0
665,129,16026,2656,1306,0,0,0,0,0,0,0,0,0,0,0
666,129,15914,2722,1734,0,0,0,0,0,0,0,0,0,0,0
667,129,15562,3024,1234,0,0,0,0,0,0,0,0,0,0,0
668,129,16096,3102,1224,0,0,0,0,0,0,0,0,0,0,0
669,129,16136,3062,990,0,0,0,0,0,0,0,0,0,0,0
670,129,15922,2962,1020,0,0,0,0,0,0,0,0,0,0,0
671,129,16064,2958,958,0,0,0,0,0,0,0,0,0,0,0
672,129,16382,2950,1014,0,0,0,0,0,0,0,0,0,0,0
673,129,16280,2822,1604,0,0,0,0,0,0,0,0,0,0,0
674,129,16102,2730,1692,0,0,0,0,0,0,0,0,0,0,0
675,129,16162,2808,1388,0,0,0,0,0,0,0,0,0,0,0
676,129,16022,2768,2058,0,0,0,0,0,0,0,0,0,0,0
677,129,15864,2768,1462,0,0,0,0,0,0,0,0,0,0,0
678,129,15940,2824,1762,0,0,0,0,0,0,0,0,0,0,0
679,129,16046,2774,1460,0,0,0,0,0,0,0,0,0,0,0
680,129,16194,2880,1008,0,0,0,0,0,0,0,0,0,0,0
681,129,16020,2910,1390,0,0,0,0,0,0,0,0,0,0,0
682,129,16308,2860,1378,0,0,0,0,0,0,0,0,0,0,0
683,129,16520,2920,1342,0,0,0,0,0,0,0,0,0,0,0
684,129,16464,3040,1180,0,0,0,0,0,0,0,0,0,0,0
685,129,16372,2892,1076,0,0,0,0,0,0,0,0,0,0,0
686,129,15860,2752,1884,0,0,0,0,0,0,0,0,0,0,0
687,129,16124,2566,1366,0,0,0,0,0,0,0,0,0,0,0
688,129,15944,2628,2082,0,0,0,0,0,0,0,0,0,0,0
689,129,16248,2574,1450,0,0,0,0,0,0,0,0,0,0,0
690,129,16084,2638,1232,0,0,0,0,0,0,0,0,0,0,0
691,129,15812,2572,966,0,0,0,0,0,0,0,0,0,0,0
692,129,15908,2600,1498,0,0,0,0,0,0,0,0,0,0,0
693,129,16210,2880,1228,0,0,0,0,0,0,0,0,0,0,0
694,129,16896,2964,930,0,0,0,0,0,0,0,0,0,0,0
695,129,16242,2822,1544,0,0,0,0,0,0,0,0,0,0,0
696,129,16038,2750,1812,0,0,0,0,0,0,0,0,0,0,0
697,129,16084,2722,1948,0,0,0,0,0,0,0,0,0,0,0
698,129,16208,2752,1358,0,0,0,0,0,0,0,0,0,0,0
699,129,15918,2672,1534,0,0,0,0,0,0,0,0,0,0,0
700,129,16086,2720,1680,0,0,0,0,0,0,0,0,0,0,0
701,129,16042,2794,1430,0,0,0,0,0,0,0,0,0,0,0
702,129,16316,2732,886,0,0,0,0,0,0,0,0,0,0,0
703,129,15850,2754,1362,0,0,0,0,0,0,0,0,0,0,0
704,129,16124,2796,1698,0,0,0,0,0,0,0,0,0,0,0
705,129,16366,2846,1448,0,0,0,0,0,0,0,0,0,0,0
706,129,16282,2666,1266,0,0,0,0,0,0,0,0,0,0,0
707,129,15994,2610,1082,0,0,0,0,0,0,0,0,0,0,0
708,129,15928,2522,1622,0,0,0,0,0,0,0,0,0,0,0
709,129,15920,2698,1636,0,0,0,0,0,0,0,0,0,0,0
710,129,16282,2782,1014,0,0,0,0,0,0,0,0,0,0,0
711,129,16074,2850,1116,0,0,0,0,0,0,0,0,0,0,0
712,129,16094,2698,1486,0,0,0,0,0,0,0,0,0,0,0
713,129,16372,2892,1430,0,0,0,0,0,0,0,0,0,0,0
714,129,16482,2948,1432,0,0,0,0,0,0,0,0,0,0,0
715,129,16422,2760,1462,0,0,0,0,0,0,0,0,0,0,0
716,129,15914,2608,1912,0,0,0,0,0,0,0,0,0,0,0
717,129,15986,2526,1602,0,0,0,0,0,0,0,0,0,0,0
718,129,15994,2536,1042,0,0,0,0,0,0,0,0,0,0,0
719,129,15826,2578,1504,0,0,0,0,0,0,0,0,0,0,0
720,129,16018,2676,858,0,0,0,0,0,0,0,0,0,0,0
721,129,16124,2952,1200,0,0,0,0,0,0,0,0,0,0,0
722,129,16376,2932,1306,0,0,0,0,0,0,0,0,0,0,0
723,129,16260,2814,1746,0,0,0,0,0,0,0,0,0,0,0
724,129,16116,2762,1090,0,0,0,0,0,0,0,0,0,0,0
725,129,16048,2630,1692,0,0,0,0,0,0,0,0,0,0,0
726,129,16318,2744,1724,0,0,0,0,0,0,0,0,0,0,0
727,129,16494,2690,1516,0,0,0,0,0,0,0,0,0,0,0
728,129,16336,2738,986,0,0,0,0,0,0,0,0,0,0,0
729,129,15888,2528,1062,0,0,0,0,0,0,0,0,0,0,0
730,129,15922,2584,1250,0,0,0,0,0,0,0,0,0,0,0
731,129,16072,2742,1236,0,0,0,0,0,0,0,0,0,0,0
732,129,16766,2924,1084,0,0,0,0,0,0,0,0,0,0,0
733,129,16526,2800,1292,0,0,0,0,0,0,0,0,0,0,0
734,129,16148,2602,1464,0,0,0,0,0,0,0,0,0,0,0
735,129,16000,2600,1400,0,0,0,0,0,0,0,0,0,0,0
736,129,15948,2560,1614,0,0,0,0,0,0,0,0,0,0,0
737,129,16194,2514,900,0,0,0,0,0,0,0,0,0,0,0
738,129,16000,2514,1238,0,0,0,0,0,0,0,0,0,0,0
739,129,15884,2618,1114,0,0,0,0,0,0,0,0,0,0,0
740,129,16066,2706,1026,0,0,0,0,0,0,0,0,0,0,0
741,129,16186,2380,1458,0,0,0,0,0,0,0,0,0,0,0
742,129,16198,2610,618,0,0,0,0,0,0,0,0,0,0,0
743,129,16064,2476,1028,0,0,0,0,0,0,0,0,0,0,0
744,129,16060,2608,1336,0,0,0,0,0,0,0,0,0,0,0
745,129,16410,2744,1300,0,0,0,0,0,0,0,0,0,0,0
746,129,16540,2918,1078,0,0,0,0,0,0,0,0,0,0,0
747,129,16016,2660,1344,0,0,0,0,0,0,0,0,0,0,0
748,129,16054,2646,1522,0,0,0,0,0,0,0,0,0,0,0
749,129,16094,2692,1424,0,0,0,0,0,0,0,0,0,0,0
750,129,16406,2802,1190,0,0,0,0,0,0,0,0,0,0,0
751,129,16410,2744,1396,0,0,0,0,0,0,0,0,0,0,0
752,129,16254,2596,1556,0,0,0,0,0,0,0,0,0,0,0
753,129,16140,2634,1386,0,0,0,0,0,0,0,0,0,0,0
754,129,15900,2606,1356,0,0,0,0,0,0,0,0,0,0,0
755,129,16050,2566,870,0,0,0,0,0,0,0,0,0,0,0
756,129,16164,2644,1200,0,0,0,0,0,0,0,0,0,0,0
757,129,16318,2504,1014,0,0,0,0,0,0,0,0,0,0,0
758,129,16270,2420,1158,0,0,0,0,0,0,0,0,0,0,0
759,129,16102,2476,1406,0,0,0,0,0,0,0,0,0,0,0
760,129,16062,2634,1080,0,0,0,0,0,0,0,0,0,0,0
761,129,15942,2586,1556,0,0,0,0,0,0,0,0,0,0,0
762,129,15974,2496,700,0,0,0,0,0,0,0,0,0,0,0
763,129,15698,2426,1858,0,0,0,0,0,0,0,0,0,0,0
764,129,15994,2474,878,0,0,0,0,0,0,0,0,0,0,0
765,129,16378,2464,1336,0,0,0,0,0,0,0,0,0,0,0
766,129,15740,2422,1826,0,0,0,0,0,0,0,0,0,0,0
767,129,16512,2472,1534,0,0,0,0,0,0,0,0,0,0,0
768,129,16252,2592,952,0,0,0,0,0,0,0,0,0,0,0
769,129,16128,2472,1734,0,0,0,0,0,0,0,0,0,0,0
770,129,15958,2496,1112,0,0,0,0,0,0,0,0,0,0,0
771,129,16366,2420,1202,0,0,0,0,0,0,0,0,0,0,0
772,129,16412,2356,966,0,0,0,0,0,0,0,0,0,0,0
773,129,15882,2372,1286,0,0,0,0,0,0,0,0,0,0,0
774,129,15844,2342,1432,0,0,0,0,0,0,0,0,0,0,0
775,129,16184,2620,1080,0,0,0,0,0,0,0,0,0,0,0
776,129,16682,2600,664,0,0,0,0,0,0,0,0,0,0,0
777,129,16316,2412,1322,0,0,0,0,0,0,0,0,0,0,0
778,129,16012,2366,1244,0,0,0,0,0,0,0,0,0,0,0
779,129,15990,2392,1914,0,0,0,0,0,0,0,0,0,0,0
780,129,16358,2488,1140,0,0,0,0,0,0,0,0,0,0,0
781,129,16230,2546,1310,0,0,0,0,0,0,0,0,0,0,0
782,129,16020,2394,1548,0,0,0,0,0,0,0,0,0,0,0
783,129,16032,2480,1292,0,0,0,0,0,0,0,0,0,0,0
784,129,16286,2492,906,0,0,0,0,0,0,0,0,0,0,0
785,129,16208,2298,1032,0,0,0,0,0,0,0,0,0,0,0
786,129,15890,2416,1268,0,0,0,0,0,0,0,0,0,0,0
787,129,15940,2382,1536,0,0,0,0,0,0,0,0,0,0,0
788,129,14464,2294,2158,0,0,0,0,0,0,0,0,0,0,0
789,129,15518,2448,1278,0,0,0,0,0,0,0,0,0,0,0
790,129,16288,3012,1338,0,0,0,0,0,0,0,0,0,0,0
791,129,16852,3300,1306,0,0,0,0,0,0,0,0,0,0,0
792,129,17304,3524,920,0,0,0,0,0,0,0,0,0,0,0
793,129,16512,3272,1634,0,0,0,0,0,0,0,0,0,0,0
794,129,16340,3318,1628,0,0,0,0,0,0,0,0,0,0,0
795,129,16114,3530,1506,0,0,0,0,0,0,0,0,0,0,0
796,129,16014,3508,892,0,0,0,0,0,0,0,0,0,0,0
797,129,15918,3430,1620,0,0,0,0,0,0,0,0,0,0,0
798,129,15670,3476,2150,0,0,0,0,0,0,0,0,0,0,0
799,129,15948,3536,1758,0,0,0,0,0,0,0,0,0,0,0
800,129,15786,3584,1380,0,0,0,0,0,0,0,0,0,0,0
801,129,15672,3602,1720,0,0,0,0,0,0,0,0,0,0,0
802,129,15784,3688,1266,0,0,0,0,0,0,0,0,0,0,0
803,129,15592,3714,1438,0,0,0,0,0,0,0,0,0,0,0
804,129,16056,3842,1420,0,0,0,0,0,0,0,0,0,0,0
805,129,16414,3848,1300,0,0,0,0,0,0,0,0,0,0,0
806,129,15268,3924,1786,0,0,0,0,0,0,0,0,0,0,0
807,129,16568,4080,1036,0,0,0,0,0,0,0,0,0,0,0
808,129,16004,4088,1166,0,0,0,0,0,0,0,0,0,0,0
809,129,16066,4100,1642,0,0,0,0,0,0,0,0,0,0,0
810,129,15946,4044,1614,0,0,0,0,0,0,0,0,0,0,0
811,129,15768,4034,1432,0,0,0,0,0,0,0,0,0,0,0
812,129,15684,4070,1414,0,0,0,0,0,0,0,0,0,0,0
813,129,15746,4152,1530,0,0,0,0,0,0,0,0,0,0,0
814,129,15884,4242,1094,0,0,0,0,0,0,0,0,0,0,0
815,129,16756,4312,1062,0,0,0,0,0,0,0,0,0,0,0
816,129,16302,4476,1540,0,0,0,0,0,0,0,0,0,0,0
817,129,15580,4360,1478,0,0,0,0,0,0,0,0,0,0,0
818,129,15850,4114,1270,0,0,0,0,0,0,0,0,0,0,0
819,129,14602,4182,1328,0,0,0,0,0,0,0,0,0,0,0
820,129,15168,4462,2020,0,0,0,0,0,0,0,0,0,0,0
821,129,15842,4826,1730,0,0,0,0,0,0,0,0,0,0,0
822,129,16118,5078,646,0,0,0,0,0,0,0,0,0,0,0
823,129,16204,4782,1348,0,0,0,0,0,0,0,0,0,0,0
824,129,14298,4778,1774,0,0,0,0,0,0,0,0,0,0,0
825,129,15066,4652,1064,0,0,0,0,0,0,0,0,0,0,0
826,129,15046,5298,964,0,0,0,0,0,0,0,0,0,0,0
827,129,16232,5468,1012,0,0,0,0,0,0,0,0,0,0,0
828,129,15860,5564,1504,0,0,0,0,0,0,0,0,0,0,0
829,129,15314,5528,1452,0,0,0,0,0,0,0,0,0,0,0
830,129,15990,5572,282,0,0,0,0,0,0,0,0,0,0,0
831,129,15008,5724,830,0,0,0,0,0,0,0,0,0,0,0
832,129,14902,5664,1142,0,0,0,0,0,0,0,0,0,0,0
833,129,15754,6066,1590,0,0,0,0,0,0,0,0,0,0,0
834,129,15562,6406,1072,0,0,0,0,0,0,0,0,0,0,0
835,129,14770,6640,1268,0,0,0,0,0,0,0,0,0,0,0
836,129,15282,6556,1412,0,0,0,0,0,0,0,0,0,0,0
837,129,15208,6620,632,0,0,0,0,0,0,0,0,0,0,0
838,129,14648,6718,1464,0,0,0,0,0,0,0,0,0,0,0
839,129,14912,6660,1412,0,0,0,0,0,0,0,0,0,0,0
840,129,14230,6982,1624,0,0,0,0,0,0,0,0,0,0,0
841,129,14586,7130,1098,0,0,0,0,0,0,0,0,0,0,0
842,129,13914,7138,1262,0,0,0,0,0,0,0,0,0,0,0
843,129,14114,7182,1116,0,0,0,0,0,0,0,0,0,0,0
844,129,14850,7534,1392,0,0,0,0,0,0,0,0,0,0,0
845,129,14994,8078,1504,0,0,0,0,0,0,0,0,0,0,0
846,129,14802,8148,864,0,0,0,0,0,0,0,0,0,0,0
847,129,14692,8062,1518,0,0,0,0,0,0,0,0,0,0,0
848,129,13864,8198,2180,0,0,0,0,0,0,0,0,0,0,0
849,129,13406,8346,1264,0,0,0,0,0,0,0,0,0,0,0
850,129,14494,8946,732,0,0,0,0,0,0,0,0,0,0,0
851,129,14376,9092,1184,0,0,0,0,0,0,0,0,0,0,0
852,129,14018,9142,1626,0,0,0,0,0,0,0,0,0,0,0
853,129,13508,8808,2112,0,0,0,0,0,0,0,0,0,0,0
854,129,13852,9314,1338,0,0,0,0,0,0,0,0,0,0,0
855,129,14534,9484,814,0,0,0,0,0,0,0,0,0,0,0
856,129,13142,9616,1646,0,0,0,0,0,0,0,0,0,0,0
857,129,13374,9766,2510,0,0,0,0,0,0,0,0,0,0,0
858,129,12974,10090,1920,0,0,0,0,0,0,0,0,0,0,0
859,129,13214,10440,658,0,0,0,0,0,0,0,0,0,0,0
860,129,12268,10412,1182,0,0,0,0,0,0,0,0,0,0,0
861,129,12314,10322,2340,0,0,0,0,0,0,0,0,0,0,0
862,129,11996,10244,2358,0,0,0,0,0,0,0,0,0,0,0
863,129,11720,10738,1478,0,0,0,0,0,0,0,0,0,0,0
864,129,11704,10946,662,0,0,0,0,0,0,0,0,0,0,0
865,129,11560,11498,1258,0,0,0,0,0,0,0,0,0,0,0
866,129,12394,11766,2108,0,0,0,0,0,0,0,0,0,0,0
867,129,12550,12250,2598,0,0,0,0,0,0,0,0,0,0,0
868,129,12028,12216,1550,0,0,0,0,0,0,0,0,0,0,0
869,129,10760,11594,1158,0,0,0,0,0,0,0,0,0,0,0
870,129,10976,11588,1936,0,0,0,0,0,0,0,0,0,0,0
871,129,11078,12214,1670,0,0,0,0,0,0,0,0,0,0,0
872,129,10898,12634,474,0,0,0,0,0,0,0,0,0,0,0
873,129,11028,12496,-116,0,0,0,0,0,0,0,0,0,0,0
874,129,10020,13056,1532,0,0,0,0,0,0,0,0,0,0,0
875,129,10590,13132,936,0,0,0,0,0,0,0,0,0,0,0
876,129,9732,13540,536,0,0,0,0,0,0,0,0,0,0,0
877,129,9848,13442,1108,0,0,0,0,0,0,0,0,0,0,0
878,129,9148,13002,1072,0,0,0,0,0,0,0,0,0,0,0
879,129,9312,13352,1496,0,0,0,0,0,0,0,0,0,0,0
880,129,9848,14146,594,0,0,0,0,0,0,0,0,0,0,0
881,129,9442,13978,676,0,0,0,0,0,0,0,0,0,0,0
882,129,8674,14070,610,0,0,0,0,0,0,0,0,0,0,0
883,129,8728,13568,698,0,0,0,0,0,0,0,0,0,0,0
884,129,9064,13992,1142,0,0,0,0,0,0,0,0,0,0,0
885,129,8784,14484,236,0,0,0,0,0,0,0,0,0,0,0
886,129,8204,14254,430,0,0,0,0,0,0,0,0,0,0,0
887,129,7808,14114,-116,0,0,0,0,0,0,0,0,0,0,0
888,129,7830,14450,-18,0,0,0,0,0,0,0,0,0,0,0
889,129,8392,14844,762,0,0,0,0,0,0,0,0,0,0,0
890,129,8246,15228,682,0,0,0,0,0,0,0,0,0,0,0
891,129,8588,14940,174,0,0,0,0,0,0,0,0,0,0,0
892,129,7530,14476,476,0,0,0,0,0,0,0,0,0,0,0
893,129,7244,14336,1184,0,0,0,0,0,0,0,0,0,0,0
894,129,7306,14534,-226,0,0,0,0,0,0,0,0,0,0,0
895,129,7086,14700,-498,0,0,0,0,0,0,0,0,0,0,0
896,129,7092,14756,-538,0,0,0,0,0,0,0,0,0,0,0
897,129,5582,14338,2856,0,0,0,0,0,0,0,0,0,0,0
898,129,6232,14456,814,0,0,0,0,0,0,0,0,0,0,0
899,129,7702,15608,-842,0,0,0,0,0,0,0,0,0,0,0
900,129,8180,16236,-808,0,0,0,0,0,0,0,0,0,0,0
901,129,7058,15424,848,0,0,0,0,0,0,0,0,0,0,0
902,129,5512,14608,3098,0,0,0,0,0,0,0,0,0,0,0
903,129,5576,14694,738,0,0,0,0,0,0,0,0,0,0,0
904,129,8594,13760,186,0,0,0,0,0,0,0,0,0,0,0
905,129,7490,16006,-1804,0,0,0,0,0,0,0,0,0,0,0
906,129,6072,15240,534,0,0,0,0,0,0,0,0,0,0,0
907,129,4810,14562,1682,0,0,0,0,0,0,0,0,0,0,0
908,129,4774,14742,1224,0,0,0,0,0,0,0,0,0,0,0
909,129,5182,15212,-592,0,0,0,0,0,0,0,0,0,0,0
910,129,5016,15482,-498,0,0,0,0,0,0,0,0,0,0,0
911,129,4898,15490,-318,0,0,0,0,0,0,0,0,0,0,0
912,129,4348,15510,984,0,0,0,0,0,0,0,0,0,0,0
913,129,4924,15696,1206,0,0,0,0,0,0,0,0,0,0,0
914,129,5392,16428,732,0,0,0,0,0,0,0,0,0,0,0
915,129,5166,16574,-80,0,0,0,0,0,0,0,0,0,0,0
916,129,4640,16246,38,0,0,0,0,0,0,0,0,0,0,0
917,129,4144,16258,266,0,0,0,0,0,0,0,0,0,0,0
918,129,4298,16188,1390,0,0,0,0,0,0,0,0,0,0,0
919,129,4374,16174,1632,0,0,0,0,0,0,0,0,0,0,0
920,129,4300,16350,-418,0,0,0,0,0,0,0,0,0,0,0
921,129,2204,17020,-1602,0,0,0,0,0,0,0,0,0,0,0
922,129,3302,15756,-284,0,0,0,0,0,0,0,0,0,0,0
923,129,3016,15862,724,0,0,0,0,0,0,0,0,0,0,0
924,129,3640,15906,862,0,0,0,0,0,0,0,0,0,0,0
925,129,4068,16564,1088,0,0,0,0,0,0,0,0,0,0,0
926,129,3392,16686,-342,0,0,0,0,0,0,0,0,0,0,0
927,129,2060,15918,-312,0,0,0,0,0,0,0,0,0,0,0
928,129,2020,15882,-140,0,0,0,0,0,0,0,0,0,0,0
929,129,2458,16260,398,0,0,0,0,0,0,0,0,0,0,0
930,129,3002,16570,798,0,0,0,0,0,0,0,0,0,0,0
931,129,2716,16862,158,0,0,0,0,0,0,0,0,0,0,0
932,129,1600,16042,1032,0,0,0,0,0,0,0,0,0,0,0
933,129,958,15566,-1100,0,0,0,0,0,0,0,0,0,0,0
934,129,1450,15672,882,0,0,0,0,0,0,0,0,0,0,0
935,129,2504,16922,-268,0,0,0,0,0,0,0,0,0,0,0
936,129,2644,17092,-640,0,0,0,0,0,0,0,0,0,0,0
937,129,1530,16584,-566,0,0,0,0,0,0,0,0,0,0,0
938,129,592,15954,224,0,0,0,0,0,0,0,0,0,0,0
939,129,924,16354,530,0,0,0,0,0,0,0,0,0,0,0
940,129,1790,16874,338,0,0,0,0,0,0,0,0,0,0,0
941,129,1602,16874,842,0,0,0,0,0,0,0,0,0,0,0
942,129,894,16650,-4,0,0,0,0,0,0,0,0,0,0,0
943,129,-2890,18522,-114,0,0,0,0,0,0,0,0,0,0,0
944,129,-24,16406,-500,0,0,0,0,0,0,0,0,0,0,0
945,129,898,17034,190,0,0,0,0,0,0,0,0,0,0,0
946,129,1100,17102,1128,0,0,0,0,0,0,0,0,0,0,0
947,129,250,16516,422,0,0,0,0,0,0,0,0,0,0,0
948,129,-104,15870,0,0,0,0,0,0,0,0,0,0,0,0
949,129,-310,16086,-990,0,0,0,0,0,0,0,0,0,0,0
950,129,268,16130,-196,0,0,0,0,0,0,0,0,0,0,0
951,129,320,16430,1462,0,0,0,0,0,0,0,0,0,0,0
952,129,180,16298,1282,0,0,0,0,0,0,0,0,0,0,0
953,129,130,16460,562,0,0,0,0,0,0,0,0,0,0,0
954,129,80,16492,334,0,0,0,0,0,0,0,0,0,0,0
955,129,110,16516,84,0,0,0,0,0,0,0,0,0,0,0
956,129,1002,17228,430,0,0,0,0,0,0,0,0,0,0,0
957,129,10,16962,-76,0,0,0,0,0,0,0,0,0,0,0
958,129,-568,16376,488,0,0,0,0,0,0,0,0,0,0,0
959,129,158,16502,28,0,0,0,0,0,0,0,0,0,0,0
960,129,380,16380,246,0,0,0,0,0,0,0,0,0,0,0
961,129,294,16276,1744,0,0,0,0,0,0,0,0,0,0,0
962,129,86,16340,718,0,0,0,0,0,0,0,0,0,0,0
963,129,112,16260,-20,0,0,0,0,0,0,0,0,0,0,0
964,129,170,16512,-104,0,0,0,0,0,0,0,0,0,0,0
965,129,348,16586,298,0,0,0,0,0,0,0,0,0,0,0
966,129,416,16524,546,0,0,0,0,0,0,0,0,0,0,0
967,129,594,16150,920,0,0,0,0,0,0,0,0,0,0,0
968,129,562,16548,-768,0,0,0,0,0,0,0,0,0,0,0
969,129,800,16532,464,0,0,0,0,0,0,0,0,0,0,0
970,129,310,16344,1774,0,0,0,0,0,0,0,0,0,0,0
971,129,290,16076,-236,0,0,0,0,0,0,0,0,0,0,0
972,129,1296,15932,1594,0,0,0,0,0,0,0,0,0,0,0
973,129,366,16540,784,0,0,0,0,0,0,0,0,0,0,0
974,129,210,16678,1564,0,0,0,0,0,0,0,0,0,0,0
975,129,404,16588,746,0,0,0,0,0,0,0,0,0,0,0
976,129,454,16518,500,0,0,0,0,0,0,0,0,0,0,0
977,129,476,16444,622,0,0,0,0,0,0,0,0,0,0,0
978,129,414,16458,582,0,0,0,0,0,0,0,0,0,0,0
979,129,520,16506,704,0,0,0,0,0,0,0,0,0,0,0
980,129,462,16392,676,0,0,0,0,0,0,0,0,0,0,0
981,129,530,16436,806,0,0,0,0,0,0,0,0,0,0,0
982,129,500,16454,584,0,0,0,0,0,0,0,0,0,0,0
983,129,470,16522,516,0,0,0,0,0,0,0,0,0,0,0
984,129,520,16436,480,0,0,0,0,0,0,0,0,0,0,0
985,129,588,16558,348,0,0,0,0,0,0,0,0,0,0,0
986,129,544,16482,418,0,0,0,0,0,0,0,0,0,0,0
987,129,524,16480,438,0,0,0,0,0,0,0,0,0,0,0
988,129,568,16406,498,0,0,0,0,0,0,0,0,0,0,0
989,129,572,16480,384,0,0,0,0,0,0,0,0,0,0,0
990,129,530,16438,676,0,0,0,0,0,0,0,0,0,0,0
991,129,580,16436,432,0,0,0,0,0,0,0,0,0,0,0
992,129,600,16418,504,0,0,0,0,0,0,0,0,0,0,0
993,129,578,16464,630,0,0,0,0,0,0,0,0,0,0,0
994,129,516,16424,514,0,0,0,0,0,0,0,0,0,0,0
995,129,560,16518,586,0,0,0,0,0,0,0,0,0,0,0
996,129,592,16470,766,0,0,0,0,0,0,0,0,0,0,0
997,129,466,16466,470,0,0,0,0,0,0,0,0,0,0,0
998,129,504,16492,556,0,0,0,0,0,0,0,0,0,0,0
999,129,506,16414,558,0,0,0,0,0,0,0,0,0,0,0
1000,129,618,16498,518,0,0,0,0,0,0,0,0,0,0,0
1001,129,578,16470,814,0,0,0,0,0,0,0,0,0,0,0
1002,129,512,16336,738,0,0,0,0,0,0,0,0,0,0,0
1003,129,474,16514,520,0,0,0,0,0,0,0,0,0,0,0
1004,129,638,16472,550,0,0,0,0,0,0,0,0,0,0,0
1005,129,614,16502,648,0,0,0,0,0,0,0,0,0,0,0
1006,129,540,16476,686,0,0,0,0,0,0,0,0,0,0,0
1007,129,450,16444,634,0,0,0,0,0,0,0,0,0,0,0
1008,129,406,16462,966,0,0,0,0,0,0,0,0,0,0,0
1009,129,456,16410,888,0,0,0,0,0,0,0,0,0,0,0
1010,129,408,16456,798,0,0,0,0,0,0,0,0,0,0,0
1011,129,442,16490,1132,0,0,0,0,0,0,0,0,0,0,0
1012,129,376,16414,766,0,0,0,0,0,0,0,0,0,0,0
1013,129,462,16452,554,0,0,0,0,0,0,0,0,0,0,0
1014,129,440,16500,928,0,0,0,0,0,0,0,0,0,0,0
1015,129,380,16520,602,0,0,0,0,0,0,0,0,0,0,0
1016,129,406,16538,800,0,0,0,0,0,0,0,0,0,0,0
1017,129,356,16488,670,0,0,0,0,0,0,0,0,0,0,0
1018,129,312,16416,882,0,0,0,0,0,0,0,0,0,0,0
1019,129,242,16434,752,0,0,0,0,0,0,0,0,0,0,0
1020,129,258,16428,862,0,0,0,0,0,0,0,0,0,0,0
1021,129,230,16458,640,0,0,0,0,0,0,0,0,0,0,0
1022,129,276,16410,950,0,0,0,0,0,0,0,0,0,0,0
1023,129,198,16470,786,0,0,0,0,0,0,0,0,0,0,0
1024,129,150,16460,1040,0,0,0,0,0,0,0,0,0,0,0
1025,129,150,16446,934,0,0,0,0,0,0,0,0,0,0,0
1026,129,164,16530,964,0,0,0,0,0,0,0,0,0,0,0
1027,129,226,16838,976,0,0,0,0,0,0,0,0,0,0,0
1028,129,204,16366,1094,0,0,0,0,0,0,0,0,0,0,0
1029,129,254,16354,848,0,0,0,0,0,0,0,0,0,0,0
1030,129,128,16410,892,0,0,0,0,0,0,0,0,0,0,0
1031,129,68,16484,866,0,0,0,0,0,0,0,0,0,0,0
1032,129,278,16442,1180,0,0,0,0,0,0,0,0,0,0,0
1033,129,256,16486,1104,0,0,0,0,0,0,0,0,0,0,0
1034,129,180,16490,1166,0,0,0,0,0,0,0,0,0,0,0
1035,129,138,16340,1310,0,0,0,0,0,0,0,0,0,0,0
1036,129,92,16518,1332,0,0,0,0,0,0,0,0,0,0,0
1037,129,162,16346,1116,0,0,0,0,0,0,0,0,0,0,0
1038,129,108,16468,1168,0,0,0,0,0,0,0,0,0,0,0
1039,129,70,16336,1168,0,0,0,0,0,0,0,0,0,0,0
1040,129,138,16350,1176,0,0,0,0,0,0,0,0,0,0,0
1041,129,36,16344,1408,0,0,0,0,0,0,0,0,0,0,0
1042,129,20,16424,1046,0,0,0,0,0,0,0,0,0,0,0
1043,129,-16,16498,866,0,0,0,0,0,0,0,0,0,0,0
1044,129,-10,16450,1000,0,0,0,0,0,0,0,0,0,0,0
1045,129,20,16454,868,0,0,0,0,0,0,0,0,0,0,0
1046,129,100,16458,1346,0,0,0,0,0,0,0,0,0,0,0
1047,129,-46,16370,1210,0,0,0,0,0,0,0,0,0,0,0
1048,129,34,16462,1426,0,0,0,0,0,0,0,0,0,0,0
1049,129,40,16462,1316,0,0,0,0,0,0,0,0,0,0,0
1050,129,-64,16526,1154,0,0,0,0,0,0,0,0,0,0,0
1051,129,18,16428,1016,0,0,0,0,0,0,0,0,0,0,0
1052,129,66,16468,1100,0,0,0,0,0,0,0,0,0,0,0
1053,129,-132,16516,860,0,0,0,0,0,0,0,0,0,0,0
1054,129,-24,16438,1102,0,0,0,0,0,0,0,0,0,0,0
1055,129,12,16370,986,0,0,0,0,0,0,0,0,0,0,0
1056,129,-6,16528,1198,0,0,0,0,0,0,0,0,0,0,0
1057,129,20,16482,1074,0,0,0,0,0,0,0,0,0,0,0
1058,129,48,16500,1082,0,0,0,0,0,0,0,0,0,0,0
1059,129,38,16478,1272,0,0,0,0,0,0,0,0,0,0,0
1060,129,-36,16438,1014,0,0,0,0,0,0,0,0,0,0,0
1061,129,18,16450,802,0,0,0,0,0,0,0,0,0,0,0
1062,129,52,16458,1164,0,0,0,0,0,0,0,0,0,0,0
1063,129,-22,16420,1044,0,0,0,0,0,0,0,0,0,0,0
1064,129,22,16510,890,0,0,0,0,0,0,0,0,0,0,0
1065,129,-6,16444,940,0,0,0,0,0,0,0,0,0,0,0
1066,129,18,16496,1054,0,0,0,0,0,0,0,0,0,0,0
1067,129,24,16460,980,0,0,0,0,0,0,0,0,0,0,0
1068,129,-14,16406,974,0,0,0,0,0,0,0,0,0,0,0
1069,129,42,16476,818,0,0,0,0,0,0,0,0,0,0,0
1070,129,64,16504,924,0,0,0,0,0,0,0,0,0,0,0
1071,129,22,16448,1080,0,0,0,0,0,0,0,0,0,0,0
1072,129,-22,16462,1026,0,0,0,0,0,0,0,0,0,0,0
1073,129,-34,16408,1038,0,0,0,0,0,0,0,0,0,0,0
1074,129,48,16498,1028,0,0,0,0,0,0,0,0,0,0,0
1075,129,24,16438,1040,0,0,0,0,0,0,0,0,0,0,0
1076,129,8,16410,1098,0,0,0,0,0,0,0,0,0,0,0
1077,129,38,16534,898,0,0,0,0,0,0,0,0,0,0,0
1078,129,-64,16406,1146,0,0,0,0,0,0,0,0,0,0,0
1079,129,92,16348,940,0,0,0,0,0,0,0,0,0,0,0
1080,129,-10,16412,1164,0,0,0,0,0,0,0,0,0,0,0
1081,129,-134,16556,856,0,0,0,0,0,0,0,0,0,0,0
1082,129,-74,16480,1260,0,0,0,0,0,0,0,0,0,0,0
1083,129,-56,16390,1108,0,0,0,0,0,0,0,0,0,0,0
1084,129,-86,16480,1130,0,0,0,0,0,0,0,0,0,0,0
1085,129,-46,16434,1008,0,0,0,0,0,0,0,0,0,0,0
1086,129,-90,16414,1294,0,0,0,0,0,0,0,0,0,0,0
1087,129,-182,16138,1252,0,0,0,0,0,0,0,0,0,0,0
1088,129,-122,16364,1294,0,0,0,0,0,0,0,0,0,0,0
1089,129,-54,16358,1278,0,0,0,0,0,0,0,0,0,0,0
1090,129,-92,16480,1194,0,0,0,0,0,0,0,0,0,0,0
1091,129,12,16362,1294,0,0,0,0,0,0,0,0,0,0,0
1092,129,-94,16488,1276,0,0,0,0,0,0,0,0,0,0,0
1093,129,-30,16464,1118,0,0,0,0,0,0,0,0,0,0,0
1094,129,-36,16388,1252,0,0,0,0,0,0,0,0,0,0,0
1095,129,38,16522,1152,0,0,0,0,0,0,0,0,0,0,0
1096,129,-100,16458,1348,0,0,0,0,0,0,0,0,0,0,0
1097,129,30,16356,1286,0,0,0,0,0,0,0,0,0,0,0
1098,129,-112,16502,1200,0,0,0,0,0,0,0,0,0,0,0
1099,129,22,16396,1118,0,0,0,0,0,0,0,0,0,0,0
1100,129,-56,16460,1304,0,0,0,0,0,0,0,0,0,0,0
1101,129,-46,16416,1416,0,0,0,0,0,0,0,0,0,0,0
1102,129,-62,16440,1300,0,0,0,0,0,0,0,0,0,0,0
1103,129,-40,16416,1318,0,0,0,0,0,0,0,0,0,0,0
1104,129,-46,16416,1508,0,0,0,0,0,0,0,0,0,0,0
1105,129,-22,16358,1130,0,0,0,0,0,0,0,0,0,0,0
1106,129,-88,16440,1076,0,0,0,0,0,0,0,0,0,0,0
1107,129,-44,16390,1112,0,0,0,0,0,0,0,0,0,0,0
1108,129,-92,16414,1154,0,0,0,0,0,0,0,0,0,0,0
1109,129,34,16582,910,0,0,0,0,0,0,0,0,0,0,0
1110,129,36,16548,984,0,0,0,0,0,0,0,0,0,0,0
1111,129,32,16542,868,0,0,0,0,0,0,0,0,0,0,0
1112,129,-8,16460,718,0,0,0,0,0,0,0,0,0,0,0
1113,129,-120,16454,826,0,0,0,0,0,0,0,0,0,0,0
1114,129,-116,16468,674,0,0,0,0,0,0,0,0,0,0,0
1115,129,-164,16412,526,0,0,0,0,0,0,0,0,0,0,0
1116,129,-152,16454,704,0,0,0,0,0,0,0,0,0,0,0
1117,129,-42,16538,574,0,0,0,0,0,0,0,0,0,0,0
1118,129,-70,16432,876,0,0,0,0,0,0,0,0,0,0,0
1119,129,-150,16496,844,0,0,0,0,0,0,0,0,0,0,0
1120,129,20,16532,948,0,0,0,0,0,0,0,0,0,0,0
1121,129,46,16338,976,0,0,0,0,0,0,0,0,0,0,0
1122,129,4,16400,1138,0,0,0,0,0,0,0,0,0,0,0
1123,129,-64,16444,1102,0,0,0,0,0,0,0,0,0,0,0
1124,129,164,16412,1182,0,0,0,0,0,0,0,0,0,0,0
1125,129,116,16470,1074,0,0,0,0,0,0,0,0,0,0,0
1126,129,168,16446,1054,0,0,0,0,0,0,0,0,0,0,0
1127,129,122,16502,942,0,0,0,0,0,0,0,0,0,0,0
1128,129,188,16404,1144,0,0,0,0,0,0,0,0,0,0,0
1129,129,78,16404,708,0,0,0,0,0,0,0,0,0,0,0
1130,129,152,16508,806,0,0,0,0,0,0,0,0,0,0,0
1131,129,58,16468,808,0,0,0,0,0,0,0,0,0,0,0
1132,129,-14,16500,920,0,0,0,0,0,0,0,0,0,0,0
1133,129,2,16370,926,0,0,0,0,0,0,0,0,0,0,0
1134,129,20,16430,1124,0,0,0,0,0,0,0,0,0,0,0
1135,129,206,16442,1218,0,0,0,0,0,0,0,0,0,0,0
1136,129,292,16512,1394,0,0,0,0,0,0,0,0,0,0,0
1137,129,256,16428,1020,0,0,0,0,0,0,0,0,0,0,0
1138,129,240,16452,1372,0,0,0,0,0,0,0,0,0,0,0
1139,129,224,16398,1354,0,0,0,0,0,0,0,0,0,0,0
1140,129,250,16428,1508,0,0,0,0,0,0,0,0,0,0,0
1141,129,194,16486,1298,0,0,0,0,0,0,0,0,0,0,0
1142,129,286,16540,1506,0,0,0,0,0,0,0,0,0,0,0
1143,129,254,16452,1360,0,0,0,0,0,0,0,0,0,0,0
1144,129,130,16410,1460,0,0,0,0,0,0,0,0,0,0,0
1145,129,120,16402,1534,0,0,0,0,0,0,0,0,0,0,0
1146,129,96,16382,1376,0,0,0,0,0,0,0,0,0,0,0
1147,129,128,16402,1304,0,0,0,0,0,0,0,0,0,0,0
1148,129,224,16462,1146,0,0,0,0,0,0,0,0,0,0,0
1149,129,212,16496,1306,0,0,0,0,0,0,0,0,0,0,0
1150,129,208,16460,1312,0,0,0,0,0,0,0,0,0,0,0
1151,129,124,16400,1300,0,0,0,0,0,0,0,0,0,0,0
1152,129,154,16400,1266,0,0,0,0,0,0,0,0,0,0,0
1153,129,54,16364,1126,0,0,0,0,0,0,0,0,0,0,0
1154,129,228,16550,1176,0,0,0,0,0,0,0,0,0,0,0
1155,129,290,16526,912,0,0,0,0,0,0,0,0,0,0,0
1156,129,244,16428,802,0,0,0,0,0,0,0,0,0,0,0
1157,129,184,16396,904,0,0,0,0,0,0,0,0,0,0,0
1158,129,220,16398,752,0,0,0,0,0,0,0,0,0,0,0
1159,129,158,16396,1024,0,0,0,0,0,0,0,0,0,0,0
1160,129,300,16486,776,0,0,0,0,0,0,0,0,0,0,0
1161,129,204,16406,772,0,0,0,0,0,0,0,0,0,0,0
1162,129,358,16456,836,0,0,0,0,0,0,0,0,0,0,0
1163,129,252,16566,760,0,0,0,0,0,0,0,0,0,0,0
1164,129,194,16544,918,0,0,0,0,0,0,0,0,0,0,0
1165,129,98,16480,938,0,0,0,0,0,0,0,0,0,0,0
1166,129,34,16454,928,0,0,0,0,0,0,0,0,0,0,0
1167,129,40,16430,1114,0,0,0,0,0,0,0,0,0,0,0
1168,129,-58,16396,1240,0,0,0,0,0,0,0,0,0,0,0
1169,129,8,16492,1190,0,0,0,0,0,0,0,0,0,0,0
1170,129,-120,16418,1178,0,0,0,0,0,0,0,0,0,0,0
1171,129,-124,16420,1280,0,0,0,0,0,0,0,0,0,0,0
1172,129,-34,16376,1388,0,0,0,0,0,0,0,0,0,0,0
1173,129,-74,16266,1262,0,0,0,0,0,0,0,0,0,0,0
1174,129,-36,16462,1082,0,0,0,0,0,0,0,0,0,0,0
1175,129,70,16448,1154,0,0,0,0,0,0,0,0,0,0,0
1176,129,-178,16394,1172,0,0,0,0,0,0,0,0,0,0,0
1177,129,-58,16520,916,0,0,0,0,0,0,0,0,0,0,0
1178,129,116,16454,1140,0,0,0,0,0,0,0,0,0,0,0
1179,129,50,16512,860,0,0,0,0,0,0,0,0,0,0,0
1180,129,-40,16448,890,0,0,0,0,0,0,0,0,0,0,0
1181,129,12,16478,804,0,0,0,0,0,0,0,0,0,0,0
