ProgrNum,PacketType,AccX,AccY,AccZ,GyrX,GyrY,GyrZ,MagX,MagY,MagZ,Q0,Q1,Q2,Q3,Vbat
0,129,824,16448,604,0,0,0,0,0,0,0,0,0,0,0
1,129,900,16408,758,0,0,0,0,0,0,0,0,0,0,0
2,129,902,16488,754,0,0,0,0,0,0,0,0,0,0,0
3,129,874,16366,660,0,0,0,0,0,0,0,0,0,0,0
4,129,916,16468,698,0,0,0,0,0,0,0,0,0,0,0
5,129,878,16478,678,0,0,0,0,0,0,0,0,0,0,0
6,129,844,16422,612,0,0,0,0,0,0,0,0,0,0,0
7,129,878,16442,620,0,0,0,0,0,0,0,0,0,0,0
8,129,926,16468,702,0,0,0,0,0,0,0,0,0,0,0
9,129,914,16398,662,0,0,0,0,0,0,0,0,0,0,0
10,129,896,16346,688,0,0,0,0,0,0,0,0,0,0,0
11,129,924,16398,628,0,0,0,0,0,0,0,0,0,0,0
12,129,784,16436,568,0,0,0,0,0,0,0,0,0,0,0
13,129,888,16364,588,0,0,0,0,0,0,0,0,0,0,0
14,129,822,16410,694,0,0,0,0,0,0,0,0,0,0,0
15,129,852,16464,588,0,0,0,0,0,0,0,0,0,0,0
16,129,862,16454,606,0,0,0,0,0,0,0,0,0,0,0
17,129,810,16364,594,0,0,0,0,0,0,0,0,0,0,0
18,129,790,16492,642,0,0,0,0,0,0,0,0,0,0,0
19,129,788,16442,512,0,0,0,0,0,0,0,0,0,0,0
20,129,756,16382,586,0,0,0,0,0,0,0,0,0,0,0
21,129,836,16520,678,0,0,0,0,0,0,0,0,0,0,0
22,129,844,16402,622,0,0,0,0,0,0,0,0,0,0,0
23,129,826,16528,638,0,0,0,0,0,0,0,0,0,0,0
24,129,946,16476,584,0,0,0,0,0,0,0,0,0,0,0
25,129,762,16450,586,0,0,0,0,0,0,0,0,0,0,0
26,129,736,16384,596,0,0,0,0,0,0,0,0,0,0,0
27,129,798,16410,616,0,0,0,0,0,0,0,0,0,0,0
28,129,736,16492,642,0,0,0,0,0,0,0,0,0,0,0
29,129,730,16474,616,0,0,0,0,0,0,0,0,0,0,0
30,129,802,16450,558,0,0,0,0,0,0,0,0,0,0,0
31,129,748,16420,480,0,0,0,0,0,0,0,0,0,0,0
32,129,846,16464,554,0,0,0,0,0,0,0,0,0,0,0
33,129,864,16464,602,0,0,0,0,0,0,0,0,0,0,0
34,129,854,16436,628,0,0,0,0,0,0,0,0,0,0,0
35,129,808,16444,472,0,0,0,0,0,0,0,0,0,0,0
36,129,854,16402,676,0,0,0,0,0,0,0,0,0,0,0
37,129,854,16436,586,0,0,0,0,0,0,0,0,0,0,0
38,129,844,16402,484,0,0,0,0,0,0,0,0,0,0,0
39,129,762,16444,496,0,0,0,0,0,0,0,0,0,0,0
40,129,778,16378,416,0,0,0,0,0,0,0,0,0,0,0
41,129,812,16426,460,0,0,0,0,0,0,0,0,0,0,0
42,129,814,16432,564,0,0,0,0,0,0,0,0,0,0,0
43,129,874,16422,554,0,0,0,0,0,0,0,0,0,0,0
44,129,780,16448,518,0,0,0,0,0,0,0,0,0,0,0
45,129,736,16520,410,0,0,0,0,0,0,0,0,0,0,0
46,129,860,16326,450,0,0,0,0,0,0,0,0,0,0,0
47,129,836,16446,404,0,0,0,0,0,0,0,0,0,0,0
48,129,812,16468,480,0,0,0,0,0,0,0,0,0,0,0
49,129,804,16442,382,0,0,0,0,0,0,0,0,0,0,0
50,129,722,16456,496,0,0,0,0,0,0,0,0,0,0,0
51,129,788,16420,382,0,0,0,0,0,0,0,0,0,0,0
52,129,760,16456,552,0,0,0,0,0,0,0,0,0,0,0
53,129,788,16414,450,0,0,0,0,0,0,0,0,0,0,0
54,129,894,16496,534,0,0,0,0,0,0,0,0,0,0,0
55,129,822,16446,460,0,0,0,0,0,0,0,0,0,0,0
56,129,818,16418,522,0,0,0,0,0,0,0,0,0,0,0
57,129,856,16434,444,0,0,0,0,0,0,0,0,0,0,0
58,129,892,16428,488,0,0,0,0,0,0,0,0,0,0,0
59,129,850,16410,590,0,0,0,0,0,0,0,0,0,0,0
60,129,840,16458,556,0,0,0,0,0,0,0,0,0,0,0
61,129,812,16390,444,0,0,0,0,0,0,0,0,0,0,0
62,129,908,16406,360,0,0,0,0,0,0,0,0,0,0,0
63,129,826,16404,584,0,0,0,0,0,0,0,0,0,0,0
64,129,876,16430,580,0,0,0,0,0,0,0,0,0,0,0
65,129,822,16396,558,0,0,0,0,0,0,0,0,0,0,0
66,129,910,16530,476,0,0,0,0,0,0,0,0,0,0,0
67,129,800,16446,566,0,0,0,0,0,0,0,0,0,0,0
68,129,924,16472,632,0,0,0,0,0,0,0,0,0,0,0
69,129,854,16422,464,0,0,0,0,0,0,0,0,0,0,0
70,129,852,16468,672,0,0,0,0,0,0,0,0,0,0,0
71,129,866,16474,552,0,0,0,0,0,0,0,0,0,0,0
72,129,820,16526,522,0,0,0,0,0,0,0,0,0,0,0
73,129,854,16464,552,0,0,0,0,0,0,0,0,0,0,0
74,129,842,16454,628,0,0,0,0,0,0,0,0,0,0,0
75,129,884,16506,476,0,0,0,0,0,0,0,0,0,0,0
76,129,816,16532,576,0,0,0,0,0,0,0,0,0,0,0
77,129,916,16444,580,0,0,0,0,0,0,0,0,0,0,0
78,129,834,16482,632,0,0,0,0,0,0,0,0,0,0,0
79,129,854,16428,582,0,0,0,0,0,0,0,0,0,0,0
80,129,862,16344,582,0,0,0,0,0,0,0,0,0,0,0
81,129,782,16470,544,0,0,0,0,0,0,0,0,0,0,0
82,129,872,16496,538,0,0,0,0,0,0,0,0,0,0,0
83,129,876,16528,582,0,0,0,0,0,0,0,0,0,0,0
84,129,840,16380,504,0,0,0,0,0,0,0,0,0,0,0
85,129,898,16432,534,0,0,0,0,0,0,0,0,0,0,0
86,129,906,16390,634,0,0,0,0,0,0,0,0,0,0,0
87,129,870,16430,488,0,0,0,0,0,0,0,0,0,0,0
88,129,828,16398,558,0,0,0,0,0,0,0,0,0,0,0
89,129,842,16404,516,0,0,0,0,0,0,0,0,0,0,0
90,129,936,16434,534,0,0,0,0,0,0,0,0,0,0,0
91,129,800,16404,546,0,0,0,0,0,0,0,0,0,0,0
92,129,820,16392,486,0,0,0,0,0,0,0,0,0,0,0
93,129,816,16362,500,0,0,0,0,0,0,0,0,0,0,0
94,129,864,16492,606,0,0,0,0,0,0,0,0,0,0,0
95,129,848,16526,516,0,0,0,0,0,0,0,0,0,0,0
96,129,940,16448,568,0,0,0,0,0,0,0,0,0,0,0
97,129,840,16390,546,0,0,0,0,0,0,0,0,0,0,0
98,129,804,16456,488,0,0,0,0,0,0,0,0,0,0,0
99,129,824,16368,596,0,0,0,0,0,0,0,0,0,0,0
100,129,824,16454,476,0,0,0,0,0,0,0,0,0,0,0
101,129,752,16386,600,0,0,0,0,0,0,0,0,0,0,0
102,129,800,16394,474,0,0,0,0,0,0,0,0,0,0,0
103,129,872,16404,484,0,0,0,0,0,0,0,0,0,0,0
104,129,940,16432,410,0,0,0,0,0,0,0,0,0,0,0
105,129,888,16454,384,0,0,0,0,0,0,0,0,0,0,0
106,129,830,16410,600,0,0,0,0,0,0,0,0,0,0,0
107,129,836,16404,562,0,0,0,0,0,0,0,0,0,0,0
108,129,844,16456,490,0,0,0,0,0,0,0,0,0,0,0
109,129,774,16396,386,0,0,0,0,0,0,0,0,0,0,0
110,129,820,16386,650,0,0,0,0,0,0,0,0,0,0,0
111,129,838,16502,434,0,0,0,0,0,0,0,0,0,0,0
112,129,758,16442,536,0,0,0,0,0,0,0,0,0,0,0
113,129,868,16450,480,0,0,0,0,0,0,0,0,0,0,0
114,129,822,16446,570,0,0,0,0,0,0,0,0,0,0,0
115,129,816,16444,542,0,0,0,0,0,0,0,0,0,0,0
116,129,876,16458,568,0,0,0,0,0,0,0,0,0,0,0
117,129,896,16470,444,0,0,0,0,0,0,0,0,0,0,0
118,129,810,16406,584,0,0,0,0,0,0,0,0,0,0,0
119,129,782,16446,612,0,0,0,0,0,0,0,0,0,0,0
120,129,860,16376,636,0,0,0,0,0,0,0,0,0,0,0
121,129,838,16544,448,0,0,0,0,0,0,0,0,0,0,0
122,129,824,16486,566,0,0,0,0,0,0,0,0,0,0,0
123,129,792,16414,412,0,0,0,0,0,0,0,0,0,0,0
124,129,892,16410,666,0,0,0,0,0,0,0,0,0,0,0
125,129,836,16396,556,0,0,0,0,0,0,0,0,0,0,0
126,129,806,16442,580,0,0,0,0,0,0,0,0,0,0,0
127,129,862,16494,510,0,0,0,0,0,0,0,0,0,0,0
128,129,874,16520,596,0,0,0,0,0,0,0,0,0,0,0
129,129,856,16376,570,0,0,0,0,0,0,0,0,0,0,0
130,129,826,16470,588,0,0,0,0,0,0,0,0,0,0,0
131,129,778,16450,538,0,0,0,0,0,0,0,0,0,0,0
132,129,776,16464,518,0,0,0,0,0,0,0,0,0,0,0
133,129,834,16534,454,0,0,0,0,0,0,0,0,0,0,0
134,129,834,16514,544,0,0,0,0,0,0,0,0,0,0,0
135,129,830,16428,508,0,0,0,0,0,0,0,0,0,0,0
136,129,828,16498,516,0,0,0,0,0,0,0,0,0,0,0
137,129,834,16426,634,0,0,0,0,0,0,0,0,0,0,0
138,129,776,16442,574,0,0,0,0,0,0,0,0,0,0,0
139,129,758,16426,450,0,0,0,0,0,0,0,0,0,0,0
140,129,774,16504,472,0,0,0,0,0,0,0,0,0,0,0
141,129,872,16468,490,0,0,0,0,0,0,0,0,0,0,0
142,129,840,16414,490,0,0,0,0,0,0,0,0,0,0,0
143,129,836,16428,606,0,0,0,0,0,0,0,0,0,0,0
144,129,816,16454,518,0,0,0,0,0,0,0,0,0,0,0
145,129,864,16438,562,0,0,0,0,0,0,0,0,0,0,0
146,129,818,16398,434,0,0,0,0,0,0,0,0,0,0,0
147,129,796,16470,428,0,0,0,0,0,0,0,0,0,0,0
148,129,818,16390,468,0,0,0,0,0,0,0,0,0,0,0
149,129,798,16476,400,0,0,0,0,0,0,0,0,0,0,0
150,129,836,16432,456,0,0,0,0,0,0,0,0,0,0,0
151,129,858,16528,582,0,0,0,0,0,0,0,0,0,0,0
152,129,850,16388,572,0,0,0,0,0,0,0,0,0,0,0
153,129,818,16500,618,0,0,0,0,0,0,0,0,0,0,0
154,129,810,16464,566,0,0,0,0,0,0,0,0,0,0,0
155,129,714,16442,514,0,0,0,0,0,0,0,0,0,0,0
156,129,808,16476,524,0,0,0,0,0,0,0,0,0,0,0
157,129,852,16420,480,0,0,0,0,0,0,0,0,0,0,0
158,129,852,16492,520,0,0,0,0,0,0,0,0,0,0,0
159,129,870,16514,552,0,0,0,0,0,0,0,0,0,0,0
160,129,776,16476,504,0,0,0,0,0,0,0,0,0,0,0
161,129,816,16440,498,0,0,0,0,0,0,0,0,0,0,0
162,129,818,16524,620,0,0,0,0,0,0,0,0,0,0,0
163,129,766,16428,450,0,0,0,0,0,0,0,0,0,0,0
164,129,830,16390,438,0,0,0,0,0,0,0,0,0,0,0
165,129,830,16504,570,0,0,0,0,0,0,0,0,0,0,0
166,129,834,16484,542,0,0,0,0,0,0,0,0,0,0,0
167,129,920,16404,416,0,0,0,0,0,0,0,0,0,0,0
168,129,850,16484,416,0,0,0,0,0,0,0,0,0,0,0
169,129,816,16580,460,0,0,0,0,0,0,0,0,0,0,0
170,129,852,16450,618,0,0,0,0,0,0,0,0,0,0,0
171,129,832,16442,508,0,0,0,0,0,0,0,0,0,0,0
172,129,780,16366,524,0,0,0,0,0,0,0,0,0,0,0
173,129,782,16466,496,0,0,0,0,0,0,0,0,0,0,0
174,129,838,16348,502,0,0,0,0,0,0,0,0,0,0,0
175,129,772,16482,470,0,0,0,0,0,0,0,0,0,0,0
176,129,828,16588,614,0,0,0,0,0,0,0,0,0,0,0
177,129,820,16434,532,0,0,0,0,0,0,0,0,0,0,0
178,129,876,16506,522,0,0,0,0,0,0,0,0,0,0,0
179,129,854,16476,628,0,0,0,0,0,0,0,0,0,0,0
180,129,742,16420,630,0,0,0,0,0,0,0,0,0,0,0
181,129,780,16412,554,0,0,0,0,0,0,0,0,0,0,0
182,129,782,16450,682,0,0,0,0,0,0,0,0,0,0,0
183,129,878,16440,542,0,0,0,0,0,0,0,0,0,0,0
184,129,800,16482,524,0,0,0,0,0,0,0,0,0,0,0
185,129,838,16370,414,0,0,0,0,0,0,0,0,0,0,0
186,129,780,16474,554,0,0,0,0,0,0,0,0,0,0,0
187,129,766,16406,484,0,0,0,0,0,0,0,0,0,0,0
188,129,824,16352,628,0,0,0,0,0,0,0,0,0,0,0
189,129,804,16398,420,0,0,0,0,0,0,0,0,0,0,0
190,129,738,16400,594,0,0,0,0,0,0,0,0,0,0,0
191,129,796,16362,346,0,0,0,0,0,0,0,0,0,0,0
192,129,816,16382,516,0,0,0,0,0,0,0,0,0,0,0
193,129,846,16448,438,0,0,0,0,0,0,0,0,0,0,0
194,129,862,16456,532,0,0,0,0,0,0,0,0,0,0,0
195,129,804,16414,298,0,0,0,0,0,0,0,0,0,0,0
196,129,840,16310,550,0,0,0,0,0,0,0,0,0,0,0
197,129,882,16414,400,0,0,0,0,0,0,0,0,0,0,0
198,129,866,16396,520,0,0,0,0,0,0,0,0,0,0,0
199,129,862,16430,576,0,0,0,0,0,0,0,0,0,0,0
200,129,778,16446,416,0,0,0,0,0,0,0,0,0,0,0
201,129,868,16458,456,0,0,0,0,0,0,0,0,0,0,0
202,129,832,16424,480,0,0,0,0,0,0,0,0,0,0,0
203,129,838,16516,314,0,0,0,0,0,0,0,0,0,0,0
204,129,800,16430,430,0,0,0,0,0,0,0,0,0,0,0
205,129,892,16424,388,0,0,0,0,0,0,0,0,0,0,0
206,129,848,16508,562,0,0,0,0,0,0,0,0,0,0,0
207,129,826,16512,426,0,0,0,0,0,0,0,0,0,0,0
208,129,918,16482,406,0,0,0,0,0,0,0,0,0,0,0
209,129,856,16442,420,0,0,0,0,0,0,0,0,0,0,0
210,129,808,16394,466,0,0,0,0,0,0,0,0,0,0,0
211,129,832,16466,420,0,0,0,0,0,0,0,0,0,0,0
212,129,850,16512,470,0,0,0,0,0,0,0,0,0,0,0
213,129,892,16500,332,0,0,0,0,0,0,0,0,0,0,0
214,129,790,16534,496,0,0,0,0,0,0,0,0,0,0,0
215,129,886,16496,436,0,0,0,0,0,0,0,0,0,0,0
216,129,860,16410,422,0,0,0,0,0,0,0,0,0,0,0
217,129,850,16410,412,0,0,0,0,0,0,0,0,0,0,0
218,129,816,16446,548,0,0,0,0,0,0,0,0,0,0,0
219,129,856,16492,450,0,0,0,0,0,0,0,0,0,0,0
220,129,858,16504,390,0,0,0,0,0,0,0,0,0,0,0
221,129,788,16422,368,0,0,0,0,0,0,0,0,0,0,0
222,129,834,16498,328,0,0,0,0,0,0,0,0,0,0,0
223,129,842,16478,448,0,0,0,0,0,0,0,0,0,0,0
224,129,860,16448,528,0,0,0,0,0,0,0,0,0,0,0
225,129,800,16424,554,0,0,0,0,0,0,0,0,0,0,0
226,129,800,16508,392,0,0,0,0,0,0,0,0,0,0,0
227,129,878,16486,426,0,0,0,0,0,0,0,0,0,0,0
228,129,810,16438,568,0,0,0,0,0,0,0,0,0,0,0
229,129,840,16406,442,0,0,0,0,0,0,0,0,0,0,0
230,129,864,16522,494,0,0,0,0,0,0,0,0,0,0,0
231,129,860,16396,442,0,0,0,0,0,0,0,0,0,0,0
232,129,834,16512,548,0,0,0,0,0,0,0,0,0,0,0
233,129,734,16340,222,0,0,0,0,0,0,0,0,0,0,0
234,129,852,16528,518,0,0,0,0,0,0,0,0,0,0,0
235,129,814,16402,370,0,0,0,0,0,0,0,0,0,0,0
236,129,822,16498,586,0,0,0,0,0,0,0,0,0,0,0
237,129,828,16444,410,0,0,0,0,0,0,0,0,0,0,0
238,129,920,16452,428,0,0,0,0,0,0,0,0,0,0,0
239,129,744,16376,468,0,0,0,0,0,0,0,0,0,0,0
240,129,778,16416,474,0,0,0,0,0,0,0,0,0,0,0
241,129,806,16502,414,0,0,0,0,0,0,0,0,0,0,0
242,129,830,16524,536,0,0,0,0,0,0,0,0,0,0,0
243,129,848,16358,472,0,0,0,0,0,0,0,0,0,0,0
244,129,802,16390,470,0,0,0,0,0,0,0,0,0,0,0
245,129,874,16420,538,0,0,0,0,0,0,0,0,0,0,0
246,129,778,16512,404,0,0,0,0,0,0,0,0,0,0,0
247,129,844,16428,412,0,0,0,0,0,0,0,0,0,0,0
248,129,858,16484,458,0,0,0,0,0,0,0,0,0,0,0
249,129,812,16516,380,0,0,0,0,0,0,0,0,0,0,0
250,129,772,16476,574,0,0,0,0,0,0,0,0,0,0,0
251,129,844,16464,440,0,0,0,0,0,0,0,0,0,0,0
252,129,826,16498,446,0,0,0,0,0,0,0,0,0,0,0
253,129,764,16424,276,0,0,0,0,0,0,0,0,0,0,0
254,129,802,16528,404,0,0,0,0,0,0,0,0,0,0,0
255,129,870,16450,380,0,0,0,0,0,0,0,0,0,0,0
256,129,830,16466,436,0,0,0,0,0,0,0,0,0,0,0
257,129,812,16520,334,0,0,0,0,0,0,0,0,0,0,0
258,129,812,16474,584,0,0,0,0,0,0,0,0,0,0,0
259,129,868,16440,412,0,0,0,0,0,0,0,0,0,0,0
260,129,822,16490,452,0,0,0,0,0,0,0,0,0,0,0
261,129,728,16400,304,0,0,0,0,0,0,0,0,0,0,0
262,129,818,16502,350,0,0,0,0,0,0,0,0,0,0,0
263,129,804,16460,270,0,0,0,0,0,0,0,0,0,0,0
264,129,818,16460,414,0,0,0,0,0,0,0,0,0,0,0
265,129,916,16386,356,0,0,0,0,0,0,0,0,0,0,0
266,129,782,16392,402,0,0,0,0,0,0,0,0,0,0,0
267,129,788,16450,450,0,0,0,0,0,0,0,0,0,0,0
268,129,784,16488,568,0,0,0,0,0,0,0,0,0,0,0
269,129,880,16382,368,0,0,0,0,0,0,0,0,0,0,0
270,129,794,16500,404,0,0,0,0,0,0,0,0,0,0,0
271,129,906,16438,524,0,0,0,0,0,0,0,0,0,0,0
272,129,762,16510,532,0,0,0,0,0,0,0,0,0,0,0
273,129,842,16352,388,0,0,0,0,0,0,0,0,0,0,0
274,129,896,16424,458,0,0,0,0,0,0,0,0,0,0,0
275,129,808,16572,534,0,0,0,0,0,0,0,0,0,0,0
276,129,778,16422,350,0,0,0,0,0,0,0,0,0,0,0
277,129,776,16432,424,0,0,0,0,0,0,0,0,0,0,0
278,129,884,16392,304,0,0,0,0,0,0,0,0,0,0,0
279,129,850,16472,388,0,0,0,0,0,0,0,0,0,0,0
280,129,806,16526,434,0,0,0,0,0,0,0,0,0,0,0
281,129,844,16354,296,0,0,0,0,0,0,0,0,0,0,0
282,129,796,16496,500,0,0,0,0,0,0,0,0,0,0,0
283,129,824,16434,502,0,0,0,0,0,0,0,0,0,0,0
284,129,830,16418,364,0,0,0,0,0,0,0,0,0,0,0
285,129,754,16506,384,0,0,0,0,0,0,0,0,0,0,0
286,129,874,16442,350,0,0,0,0,0,0,0,0,0,0,0
287,129,792,16432,452,0,0,0,0,0,0,0,0,0,0,0
288,129,866,16420,368,0,0,0,0,0,0,0,0,0,0,0
289,129,884,16430,294,0,0,0,0,0,0,0,0,0,0,0
290,129,822,16458,566,0,0,0,0,0,0,0,0,0,0,0
291,129,764,16496,514,0,0,0,0,0,0,0,0,0,0,0
292,129,888,16476,484,0,0,0,0,0,0,0,0,0,0,0
293,129,1160,16514,-234,0,0,0,0,0,0,0,0,0,0,0
294,129,796,16486,442,0,0,0,0,0,0,0,0,0,0,0
295,129,832,16508,466,0,0,0,0,0,0,0,0,0,0,0
296,129,780,16448,414,0,0,0,0,0,0,0,0,0,0,0
297,129,800,16460,498,0,0,0,0,0,0,0,0,0,0,0
298,129,912,16402,358,0,0,0,0,0,0,0,0,0,0,0
299,129,-1050,16764,5058,0,0,0,0,0,0,0,0,0,0,0
300,129,762,16416,310,0,0,0,0,0,0,0,0,0,0,0
301,129,188,16646,1800,0,0,0,0,0,0,0,0,0,0,0
302,129,532,16562,1148,0,0,0,0,0,0,0,0,0,0,0
303,129,940,16508,-530,0,0,0,0,0,0,0,0,0,0,0
304,129,806,16538,-254,0,0,0,0,0,0,0,0,0,0,0
305,129,820,16348,1754,0,0,0,0,0,0,0,0,0,0,0
306,129,804,16368,114,0,0,0,0,0,0,0,0,0,0,0
307,129,402,16476,228,0,0,0,0,0,0,0,0,0,0,0
308,129,464,16718,1382,0,0,0,0,0,0,0,0,0,0,0
309,129,516,15780,2358,0,0,0,0,0,0,0,0,0,0,0
310,129,516,16856,2188,0,0,0,0,0,0,0,0,0,0,0
311,129,948,15990,3450,0,0,0,0,0,0,0,0,0,0,0
312,129,414,17690,1744,0,0,0,0,0,0,0,0,0,0,0
313,129,664,16276,2664,0,0,0,0,0,0,0,0,0,0,0
314,129,1086,15858,3344,0,0,0,0,0,0,0,0,0,0,0
315,129,1028,16620,3588,0,0,0,0,0,0,0,0,0,0,0
316,129,754,16650,4020,0,0,0,0,0,0,0,0,0,0,0
317,129,638,16420,4242,0,0,0,0,0,0,0,0,0,0,0
318,129,200,16400,4646,0,0,0,0,0,0,0,0,0,0,0
319,129,336,15820,4954,0,0,0,0,0,0,0,0,0,0,0
320,129,436,15402,5456,0,0,0,0,0,0,0,0,0,0,0
321,129,356,15028,5974,0,0,0,0,0,0,0,0,0,0,0
322,129,46,15320,6304,0,0,0,0,0,0,0,0,0,0,0
323,129,-370,14578,6918,0,0,0,0,0,0,0,0,0,0,0
324,129,238,15262,7872,0,0,0,0,0,0,0,0,0,0,0
325,129,-326,14792,7808,0,0,0,0,0,0,0,0,0,0,0
326,129,-538,14566,8078,0,0,0,0,0,0,0,0,0,0,0
327,129,-342,14412,8464,0,0,0,0,0,0,0,0,0,0,0
328,129,240,13704,9026,0,0,0,0,0,0,0,0,0,0,0
329,129,110,13708,9446,0,0,0,0,0,0,0,0,0,0,0
330,129,-36,13446,9964,0,0,0,0,0,0,0,0,0,0,0
331,129,-674,13196,10296,0,0,0,0,0,0,0,0,0,0,0
332,129,-738,12976,10732,0,0,0,0,0,0,0,0,0,0,0
333,129,-606,12674,11740,0,0,0,0,0,0,0,0,0,0,0
334,129,-676,12316,12256,0,0,0,0,0,0,0,0,0,0,0
335,129,-558,11476,12684,0,0,0,0,0,0,0,0,0,0,0
336,129,-1014,10640,12380,0,0,0,0,0,0,0,0,0,0,0
337,129,-1068,10182,13074,0,0,0,0,0,0,0,0,0,0,0
338,129,-1144,9372,13164,0,0,0,0,0,0,0,0,0,0,0
339,129,-560,8846,14358,0,0,0,0,0,0,0,0,0,0,0
340,129,-1060,8478,14234,0,0,0,0,0,0,0,0,0,0,0
341,129,-1260,8042,14608,0,0,0,0,0,0,0,0,0,0,0
342,129,-898,6796,14080,0,0,0,0,0,0,0,0,0,0,0
343,129,-1036,6690,14642,0,0,0,0,0,0,0,0,0,0,0
344,129,-1152,6000,14964,0,0,0,0,0,0,0,0,0,0,0
345,129,-1046,5654,16056,0,0,0,0,0,0,0,0,0,0,0
346,129,-892,4448,15132,0,0,0,0,0,0,0,0,0,0,0
347,129,-1086,3788,15132,0,0,0,0,0,0,0,0,0,0,0
348,129,-1124,3440,15266,0,0,0,0,0,0,0,0,0,0,0
349,129,-970,3286,14874,0,0,0,0,0,0,0,0,0,0,0
350,129,-990,3738,15750,0,0,0,0,0,0,0,0,0,0,0
351,129,-988,3726,16468,0,0,0,0,0,0,0,0,0,0,0
352,129,-636,3278,17108,0,0,0,0,0,0,0,0,0,0,0
353,129,-938,3040,16592,0,0,0,0,0,0,0,0,0,0,0
354,129,-536,2394,16624,0,0,0,0,0,0,0,0,0,0,0
355,129,-714,1578,15386,0,0,0,0,0,0,0,0,0,0,0
356,129,-564,1020,15720,0,0,0,0,0,0,0,0,0,0,0
357,129,-232,718,16612,0,0,0,0,0,0,0,0,0,0,0
358,129,-278,306,16526,0,0,0,0,0,0,0,0,0,0,0
359,129,-420,274,16652,0,0,0,0,0,0,0,0,0,0,0
360,129,-484,-130,15708,0,0,0,0,0,0,0,0,0,0,0
361,129,-708,-582,16870,0,0,0,0,0,0,0,0,0,0,0
362,129,-446,-1016,16956,0,0,0,0,0,0,0,0,0,0,0
363,129,-60,-2156,16298,0,0,0,0,0,0,0,0,0,0,0
364,129,-230,-2886,14512,0,0,0,0,0,0,0,0,0,0,0
365,129,22,-3072,14686,0,0,0,0,0,0,0,0,0,0,0
366,129,60,-3364,14126,0,0,0,0,0,0,0,0,0,0,0
367,129,-58,-3100,15032,0,0,0,0,0,0,0,0,0,0,0
368,129,-310,-2992,15964,0,0,0,0,0,0,0,0,0,0,0
369,129,4,-3002,16446,0,0,0,0,0,0,0,0,0,0,0
370,129,-22,-2824,15686,0,0,0,0,0,0,0,0,0,0,0
371,129,50,-2888,16064,0,0,0,0,0,0,0,0,0,0,0
372,129,-118,-2798,15938,0,0,0,0,0,0,0,0,0,0,0
373,129,-498,-2604,15994,0,0,0,0,0,0,0,0,0,0,0
374,129,-260,-2428,15868,0,0,0,0,0,0,0,0,0,0,0
375,129,-120,-2270,16196,0,0,0,0,0,0,0,0,0,0,0
376,129,32,-2232,16402,0,0,0,0,0,0,0,0,0,0,0
377,129,-18,-1988,16076,0,0,0,0,0,0,0,0,0,0,0
378,129,-174,-2002,16128,0,0,0,0,0,0,0,0,0,0,0
379,129,-44,-1956,16628,0,0,0,0,0,0,0,0,0,0,0
380,129,-24,-1784,16668,0,0,0,0,0,0,0,0,0,0,0
381,129,132,-1794,16152,0,0,0,0,0,0,0,0,0,0,0
382,129,-18,-1550,16518,0,0,0,0,0,0,0,0,0,0,0
383,129,156,-1780,16322,0,0,0,0,0,0,0,0,0,0,0
384,129,112,-1850,16534,0,0,0,0,0,0,0,0,0,0,0
385,129,106,-1738,16300,0,0,0,0,0,0,0,0,0,0,0
386,129,-154,-1500,16352,0,0,0,0,0,0,0,0,0,0,0
387,129,-42,-1506,16184,0,0,0,0,0,0,0,0,0,0,0
388,129,54,-1446,16338,0,0,0,0,0,0,0,0,0,0,0
389,129,-72,-1488,16228,0,0,0,0,0,0,0,0,0,0,0
390,129,178,-1638,16346,0,0,0,0,0,0,0,0,0,0,0
391,129,68,-1482,15978,0,0,0,0,0,0,0,0,0,0,0
392,129,14,-1476,16038,0,0,0,0,0,0,0,0,0,0,0
393,129,20,-1414,16590,0,0,0,0,0,0,0,0,0,0,0
394,129,-152,-1128,16394,0,0,0,0,0,0,0,0,0,0,0
395,129,20,-1124,16964,0,0,0,0,0,0,0,0,0,0,0
396,129,100,-1190,16560,0,0,0,0,0,0,0,0,0,0,0
397,129,180,-1166,16294,0,0,0,0,0,0,0,0,0,0,0
398,129,250,-1104,16350,0,0,0,0,0,0,0,0,0,0,0
399,129,12,-974,16210,0,0,0,0,0,0,0,0,0,0,0
400,129,-48,-946,16214,0,0,0,0,0,0,0,0,0,0,0
401,129,190,-866,16360,0,0,0,0,0,0,0,0,0,0,0
402,129,170,-984,16532,0,0,0,0,0,0,0,0,0,0,0
403,129,162,-924,16518,0,0,0,0,0,0,0,0,0,0,0
404,129,-10,-860,16330,0,0,0,0,0,0,0,0,0,0,0
405,129,42,-914,16506,0,0,0,0,0,0,0,0,0,0,0
406,129,108,-1044,16400,0,0,0,0,0,0,0,0,0,0,0
407,129,66,-1046,16358,0,0,0,0,0,0,0,0,0,0,0
408,129,174,-1074,16452,0,0,0,0,0,0,0,0,0,0,0
409,129,-50,-898,16346,0,0,0,0,0,0,0,0,0,0,0
410,129,34,-778,16344,0,0,0,0,0,0,0,0,0,0,0
411,129,128,-936,16620,0,0,0,0,0,0,0,0,0,0,0
412,129,52,-872,16324,0,0,0,0,0,0,0,0,0,0,0
413,129,116,-920,15752,0,0,0,0,0,0,0,0,0,0,0
414,129,210,-766,16394,0,0,0,0,0,0,0,0,0,0,0
415,129,-8,-800,16596,0,0,0,0,0,0,0,0,0,0,0
416,129,144,-998,16548,0,0,0,0,0,0,0,0,0,0,0
417,129,66,-794,16582,0,0,0,0,0,0,0,0,0,0,0
418,129,76,-910,16438,0,0,0,0,0,0,0,0,0,0,0
419,129,258,-850,16310,0,0,0,0,0,0,0,0,0,0,0
420,129,38,-786,16160,0,0,0,0,0,0,0,0,0,0,0
421,129,156,-750,16462,0,0,0,0,0,0,0,0,0,0,0
422,129,224,-726,16170,0,0,0,0,0,0,0,0,0,0,0
423,129,252,-764,16330,0,0,0,0,0,0,0,0,0,0,0
424,129,332,-804,16454,0,0,0,0,0,0,0,0,0,0,0
425,129,-42,-672,16322,0,0,0,0,0,0,0,0,0,0,0
426,129,134,-788,16552,0,0,0,0,0,0,0,0,0,0,0
427,129,276,-818,16342,0,0,0,0,0,0,0,0,0,0,0
428,129,194,-790,16422,0,0,0,0,0,0,0,0,0,0,0
429,129,340,-760,16354,0,0,0,0,0,0,0,0,0,0,0
430,129,-20,-720,16648,0,0,0,0,0,0,0,0,0,0,0
431,129,370,-796,16320,0,0,0,0,0,0,0,0,0,0,0
432,129,292,-764,16314,0,0,0,0,0,0,0,0,0,0,0
433,129,24,-540,16344,0,0,0,0,0,0,0,0,0,0,0
434,129,26,-526,16524,0,0,0,0,0,0,0,0,0,0,0
435,129,138,-588,16384,0,0,0,0,0,0,0,0,0,0,0
436,129,218,-520,16260,0,0,0,0,0,0,0,0,0,0,0
437,129,396,-736,16164,0,0,0,0,0,0,0,0,0,0,0
438,129,142,-678,16338,0,0,0,0,0,0,0,0,0,0,0
439,129,74,-684,16194,0,0,0,0,0,0,0,0,0,0,0
440,129,130,-626,16538,0,0,0,0,0,0,0,0,0,0,0
441,129,176,-662,16442,0,0,0,0,0,0,0,0,0,0,0
442,129,234,-462,16316,0,0,0,0,0,0,0,0,0,0,0
443,129,70,-428,16452,0,0,0,0,0,0,0,0,0,0,0
444,129,374,-494,16396,0,0,0,0,0,0,0,0,0,0,0
445,129,106,-488,15984,0,0,0,0,0,0,0,0,0,0,0
446,129,154,-446,16404,0,0,0,0,0,0,0,0,0,0,0
447,129,254,-508,16552,0,0,0,0,0,0,0,0,0,0,0
448,129,406,-656,16700,0,0,0,0,0,0,0,0,0,0,0
449,129,178,-628,16434,0,0,0,0,0,0,0,0,0,0,0
450,129,162,-618,16374,0,0,0,0,0,0,0,0,0,0,0
451,129,278,-548,16478,0,0,0,0,0,0,0,0,0,0,0
452,129,248,-488,16384,0,0,0,0,0,0,0,0,0,0,0
453,129,206,-442,16426,0,0,0,0,0,0,0,0,0,0,0
454,129,208,-470,16186,0,0,0,0,0,0,0,0,0,0,0
455,129,236,-568,16274,0,0,0,0,0,0,0,0,0,0,0
456,129,232,-564,16330,0,0,0,0,0,0,0,0,0,0,0
457,129,274,-596,16610,0,0,0,0,0,0,0,0,0,0,0
458,129,146,-484,16586,0,0,0,0,0,0,0,0,0,0,0
459,129,234,-494,16242,0,0,0,0,0,0,0,0,0,0,0
460,129,436,-560,16238,0,0,0,0,0,0,0,0,0,0,0
461,129,312,-418,16236,0,0,0,0,0,0,0,0,0,0,0
462,129,242,-462,16294,0,0,0,0,0,0,0,0,0,0,0
463,129,166,-480,16424,0,0,0,0,0,0,0,0,0,0,0
464,129,308,-522,16362,0,0,0,0,0,0,0,0,0,0,0
465,129,336,-520,16234,0,0,0,0,0,0,0,0,0,0,0
466,129,222,-440,16480,0,0,0,0,0,0,0,0,0,0,0
467,129,368,-550,16338,0,0,0,0,0,0,0,0,0,0,0
468,129,270,-462,16614,0,0,0,0,0,0,0,0,0,0,0
469,129,250,-608,16506,0,0,0,0,0,0,0,0,0,0,0
470,129,248,-632,16402,0,0,0,0,0,0,0,0,0,0,0
471,129,412,-486,16424,0,0,0,0,0,0,0,0,0,0,0
472,129,154,-362,16486,0,0,0,0,0,0,0,0,0,0,0
473,129,330,-524,16308,0,0,0,0,0,0,0,0,0,0,0
474,129,338,-508,16306,0,0,0,0,0,0,0,0,0,0,0
475,129,308,-482,16298,0,0,0,0,0,0,0,0,0,0,0
476,129,278,-550,16466,0,0,0,0,0,0,0,0,0,0,0
477,129,194,-374,16396,0,0,0,0,0,0,0,0,0,0,0
478,129,262,-402,16492,0,0,0,0,0,0,0,0,0,0,0
479,129,384,-554,16264,0,0,0,0,0,0,0,0,0,0,0
480,129,354,-538,16302,0,0,0,0,0,0,0,0,0,0,0
481,129,96,-368,16142,0,0,0,0,0,0,0,0,0,0,0
482,129,142,-438,16252,0,0,0,0,0,0,0,0,0,0,0
483,129,332,-588,16546,0,0,0,0,0,0,0,0,0,0,0
484,129,152,-526,16220,0,0,0,0,0,0,0,0,0,0,0
485,129,278,-460,16538,0,0,0,0,0,0,0,0,0,0,0
486,129,278,-488,16352,0,0,0,0,0,0,0,0,0,0,0
487,129,416,-494,16322,0,0,0,0,0,0,0,0,0,0,0
488,129,810,-776,16398,0,0,0,0,0,0,0,0,0,0,0
489,129,332,-450,16274,0,0,0,0,0,0,0,0,0,0,0
490,129,452,-592,16490,0,0,0,0,0,0,0,0,0,0,0
491,129,384,-518,16528,0,0,0,0,0,0,0,0,0,0,0
492,129,392,-412,16456,0,0,0,0,0,0,0,0,0,0,0
493,129,364,-490,16580,0,0,0,0,0,0,0,0,0,0,0
494,129,258,-418,16182,0,0,0,0,0,0,0,0,0,0,0
495,129,534,-502,16198,0,0,0,0,0,0,0,0,0,0,0
496,129,408,-588,16326,0,0,0,0,0,0,0,0,0,0,0
497,129,368,-498,16454,0,0,0,0,0,0,0,0,0,0,0
498,129,344,-564,16288,0,0,0,0,0,0,0,0,0,0,0
499,129,396,-402,16474,0,0,0,0,0,0,0,0,0,0,0
500,129,438,-372,16530,0,0,0,0,0,0,0,0,0,0,0
501,129,368,-306,16254,0,0,0,0,0,0,0,0,0,0,0
502,129,288,-344,16218,0,0,0,0,0,0,0,0,0,0,0
503,129,484,-526,16234,0,0,0,0,0,0,0,0,0,0,0
504,129,394,-570,16444,0,0,0,0,0,0,0,0,0,0,0
505,129,332,-568,16460,0,0,0,0,0,0,0,0,0,0,0
506,129,378,-356,16466,0,0,0,0,0,0,0,0,0,0,0
507,129,260,-314,16582,0,0,0,0,0,0,0,0,0,0,0
508,129,438,-366,16406,0,0,0,0,0,0,0,0,0,0,0
509,129,454,-442,16172,0,0,0,0,0,0,0,0,0,0,0
510,129,468,-414,16458,0,0,0,0,0,0,0,0,0,0,0
511,129,382,-492,16176,0,0,0,0,0,0,0,0,0,0,0
512,129,474,-490,16414,0,0,0,0,0,0,0,0,0,0,0
513,129,332,-270,16384,0,0,0,0,0,0,0,0,0,0,0
514,129,440,-492,16632,0,0,0,0,0,0,0,0,0,0,0
515,129,316,-494,16298,0,0,0,0,0,0,0,0,0,0,0
516,129,494,-530,16436,0,0,0,0,0,0,0,0,0,0,0
517,129,482,-522,16338,0,0,0,0,0,0,0,0,0,0,0
518,129,292,-212,16252,0,0,0,0,0,0,0,0,0,0,0
519,129,270,-306,16136,0,0,0,0,0,0,0,0,0,0,0
520,129,446,-440,16376,0,0,0,0,0,0,0,0,0,0,0
521,129,340,-518,16462,0,0,0,0,0,0,0,0,0,0,0
522,129,326,-418,16628,0,0,0,0,0,0,0,0,0,0,0
523,129,394,-404,16358,0,0,0,0,0,0,0,0,0,0,0
524,129,338,-334,16250,0,0,0,0,0,0,0,0,0,0,0
525,129,344,-482,16088,0,0,0,0,0,0,0,0,0,0,0
526,129,310,-444,16374,0,0,0,0,0,0,0,0,0,0,0
527,129,142,-384,16092,0,0,0,0,0,0,0,0,0,0,0
528,129,400,-508,16578,0,0,0,0,0,0,0,0,0,0,0
529,129,418,-596,16520,0,0,0,0,0,0,0,0,0,0,0
530,129,370,-430,16586,0,0,0,0,0,0,0,0,0,0,0
531,129,374,-424,16362,0,0,0,0,0,0,0,0,0,0,0
532,129,342,-376,16248,0,0,0,0,0,0,0,0,0,0,0
533,129,396,-404,16148,0,0,0,0,0,0,0,0,0,0,0
534,129,366,-454,16106,0,0,0,0,0,0,0,0,0,0,0
535,129,442,-564,16468,0,0,0,0,0,0,0,0,0,0,0
536,129,252,-440,16422,0,0,0,0,0,0,0,0,0,0,0
537,129,352,-496,16450,0,0,0,0,0,0,0,0,0,0,0
538,129,416,-498,16394,0,0,0,0,0,0,0,0,0,0,0
539,129,330,-456,16482,0,0,0,0,0,0,0,0,0,0,0
540,129,262,-304,16308,0,0,0,0,0,0,0,0,0,0,0
541,129,340,-438,16346,0,0,0,0,0,0,0,0,0,0,0
542,129,580,-572,16150,0,0,0,0,0,0,0,0,0,0,0
543,129,398,-488,16280,0,0,0,0,0,0,0,0,0,0,0
544,129,152,-414,16536,0,0,0,0,0,0,0,0,0,0,0
545,129,434,-464,16412,0,0,0,0,0,0,0,0,0,0,0
546,129,384,-450,16236,0,0,0,0,0,0,0,0,0,0,0
547,129,450,-498,16470,0,0,0,0,0,0,0,0,0,0,0
548,129,296,-462,16314,0,0,0,0,0,0,0,0,0,0,0
549,129,190,-414,16410,0,0,0,0,0,0,0,0,0,0,0
550,129,318,-532,16578,0,0,0,0,0,0,0,0,0,0,0
551,129,368,-524,16316,0,0,0,0,0,0,0,0,0,0,0
552,129,380,-458,16384,0,0,0,0,0,0,0,0,0,0,0
553,129,260,-312,16398,0,0,0,0,0,0,0,0,0,0,0
554,129,334,-350,16364,0,0,0,0,0,0,0,0,0,0,0
555,129,372,-454,16456,0,0,0,0,0,0,0,0,0,0,0
556,129,378,-432,16524,0,0,0,0,0,0,0,0,0,0,0
557,129,266,-470,16294,0,0,0,0,0,0,0,0,0,0,0
558,129,396,-392,16484,0,0,0,0,0,0,0,0,0,0,0
559,129,370,-548,16112,0,0,0,0,0,0,0,0,0,0,0
560,129,310,-544,16440,0,0,0,0,0,0,0,0,0,0,0
561,129,290,-504,16212,0,0,0,0,0,0,0,0,0,0,0
562,129,326,-508,16422,0,0,0,0,0,0,0,0,0,0,0
563,129,406,-482,16440,0,0,0,0,0,0,0,0,0,0,0
564,129,282,-344,16430,0,0,0,0,0,0,0,0,0,0,0
565,129,256,-356,16492,0,0,0,0,0,0,0,0,0,0,0
566,129,262,-384,16448,0,0,0,0,0,0,0,0,0,0,0
567,129,476,-616,16458,0,0,0,0,0,0,0,0,0,0,0
568,129,424,-554,16304,0,0,0,0,0,0,0,0,0,0,0
569,129,278,-370,16204,0,0,0,0,0,0,0,0,0,0,0
570,129,290,-346,16344,0,0,0,0,0,0,0,0,0,0,0
571,129,264,-378,16354,0,0,0,0,0,0,0,0,0,0,0
572,129,350,-448,16560,0,0,0,0,0,0,0,0,0,0,0
573,129,378,-384,16262,0,0,0,0,0,0,0,0,0,0,0
574,129,438,-464,16632,0,0,0,0,0,0,0,0,0,0,0
575,129,286,-522,16436,0,0,0,0,0,0,0,0,0,0,0
576,129,344,-338,16294,0,0,0,0,0,0,0,0,0,0,0
577,129,448,-478,16154,0,0,0,0,0,0,0,0,0,0,0
578,129,366,-510,16186,0,0,0,0,0,0,0,0,0,0,0
579,129,400,-458,16416,0,0,0,0,0,0,0,0,0,0,0
580,129,354,-494,16580,0,0,0,0,0,0,0,0,0,0,0
581,129,288,-476,16518,0,0,0,0,0,0,0,0,0,0,0
582,129,342,-478,16204,0,0,0,0,0,0,0,0,0,0,0
583,129,446,-462,16318,0,0,0,0,0,0,0,0,0,0,0
584,129,404,-528,16372,0,0,0,0,0,0,0,0,0,0,0
585,129,298,-508,16270,0,0,0,0,0,0,0,0,0,0,0
586,129,274,-446,16434,0,0,0,0,0,0,0,0,0,0,0
587,129,406,-398,16302,0,0,0,0,0,0,0,0,0,0,0
588,129,408,-392,16546,0,0,0,0,0,0,0,0,0,0,0
589,129,296,-340,16222,0,0,0,0,0,0,0,0,0,0,0
590,129,268,-408,16326,0,0,0,0,0,0,0,0,0,0,0
591,129,452,-560,16328,0,0,0,0,0,0,0,0,0,0,0
592,129,260,-496,16250,0,0,0,0,0,0,0,0,0,0,0
593,129,282,-280,16428,0,0,0,0,0,0,0,0,0,0,0
594,129,412,-292,16664,0,0,0,0,0,0,0,0,0,0,0
595,129,264,-316,16088,0,0,0,0,0,0,0,0,0,0,0
596,129,388,-504,16266,0,0,0,0,0,0,0,0,0,0,0
597,129,314,-524,16248,0,0,0,0,0,0,0,0,0,0,0
598,129,412,-512,16390,0,0,0,0,0,0,0,0,0,0,0
599,129,332,-422,16344,0,0,0,0,0,0,0,0,0,0,0
600,129,436,-410,16466,0,0,0,0,0,0,0,0,0,0,0
601,129,308,-248,16272,0,0,0,0,0,0,0,0,0,0,0
602,129,234,-180,16426,0,0,0,0,0,0,0,0,0,0,0
603,129,484,-402,16134,0,0,0,0,0,0,0,0,0,0,0
604,129,398,-570,16320,0,0,0,0,0,0,0,0,0,0,0
605,129,396,-636,16524,0,0,0,0,0,0,0,0,0,0,0
606,129,428,-536,16590,0,0,0,0,0,0,0,0,0,0,0
607,129,252,-388,16172,0,0,0,0,0,0,0,0,0,0,0
608,129,416,-264,16362,0,0,0,0,0,0,0,0,0,0,0
609,129,398,-242,16364,0,0,0,0,0,0,0,0,0,0,0
610,129,400,-456,16092,0,0,0,0,0,0,0,0,0,0,0
611,129,486,-540,15664,0,0,0,0,0,0,0,0,0,0,0
612,129,360,-490,16318,0,0,0,0,0,0,0,0,0,0,0
613,129,198,-392,16578,0,0,0,0,0,0,0,0,0,0,0
614,129,464,-510,16718,0,0,0,0,0,0,0,0,0,0,0
615,129,456,-536,16326,0,0,0,0,0,0,0,0,0,0,0
616,129,340,-298,16276,0,0,0,0,0,0,0,0,0,0,0
617,129,302,-330,16382,0,0,0,0,0,0,0,0,0,0,0
618,129,268,-198,16370,0,0,0,0,0,0,0,0,0,0,0
619,129,322,-314,16170,0,0,0,0,0,0,0,0,0,0,0
620,129,338,-410,16248,0,0,0,0,0,0,0,0,0,0,0
621,129,506,-528,16358,0,0,0,0,0,0,0,0,0,0,0
622,129,238,-382,16524,0,0,0,0,0,0,0,0,0,0,0
623,129,520,-570,16782,0,0,0,0,0,0,0,0,0,0,0
624,129,288,-452,16464,0,0,0,0,0,0,0,0,0,0,0
625,129,346,-364,16058,0,0,0,0,0,0,0,0,0,0,0
626,129,410,-376,16352,0,0,0,0,0,0,0,0,0,0,0
627,129,286,-256,16128,0,0,0,0,0,0,0,0,0,0,0
628,129,458,-410,16476,0,0,0,0,0,0,0,0,0,0,0
629,129,354,-488,16378,0,0,0,0,0,0,0,0,0,0,0
630,129,370,-434,16380,0,0,0,0,0,0,0,0,0,0,0
631,129,376,-560,16568,0,0,0,0,0,0,0,0,0,0,0
632,129,280,-290,16348,0,0,0,0,0,0,0,0,0,0,0
633,129,290,-306,16390,0,0,0,0,0,0,0,0,0,0,0
634,129,380,-334,16278,0,0,0,0,0,0,0,0,0,0,0
635,129,310,-244,16224,0,0,0,0,0,0,0,0,0,0,0
636,129,456,-436,16510,0,0,0,0,0,0,0,0,0,0,0
637,129,336,-572,16456,0,0,0,0,0,0,0,0,0,0,0
638,129,310,-446,16210,0,0,0,0,0,0,0,0,0,0,0
639,129,322,-382,16318,0,0,0,0,0,0,0,0,0,0,0
640,129,360,-406,16418,0,0,0,0,0,0,0,0,0,0,0
641,129,284,-292,16440,0,0,0,0,0,0,0,0,0,0,0
642,129,290,-422,16302,0,0,0,0,0,0,0,0,0,0,0
643,129,382,-540,16346,0,0,0,0,0,0,0,0,0,0,0
644,129,328,-338,16468,0,0,0,0,0,0,0,0,0,0,0
645,129,386,-438,16420,0,0,0,0,0,0,0,0,0,0,0
646,129,412,-476,16222,0,0,0,0,0,0,0,0,0,0,0
647,129,434,-334,16350,0,0,0,0,0,0,0,0,0,0,0
648,129,304,-274,16370,0,0,0,0,0,0,0,0,0,0,0
649,129,262,-376,16352,0,0,0,0,0,0,0,0,0,0,0
650,129,280,-318,16250,0,0,0,0,0,0,0,0,0,0,0
651,129,388,-386,16462,0,0,0,0,0,0,0,0,0,0,0
652,129,414,-370,16444,0,0,0,0,0,0,0,0,0,0,0
653,129,444,-538,16152,0,0,0,0,0,0,0,0,0,0,0
654,129,282,-428,16198,0,0,0,0,0,0,0,0,0,0,0
655,129,342,-468,16532,0,0,0,0,0,0,0,0,0,0,0
656,129,254,-370,16436,0,0,0,0,0,0,0,0,0,0,0
657,129,268,-288,16144,0,0,0,0,0,0,0,0,0,0,0
658,129,466,-498,16516,0,0,0,0,0,0,0,0,0,0,0
659,129,306,-380,16274,0,0,0,0,0,0,0,0,0,0,0
660,129,430,-336,16188,0,0,0,0,0,0,0,0,0,0,0
661,129,240,-380,16050,0,0,0,0,0,0,0,0,0,0,0
662,129,258,-480,16528,0,0,0,0,0,0,0,0,0,0,0
663,129,192,-426,16420,0,0,0,0,0,0,0,0,0,0,0
664,129,264,-632,16486,0,0,0,0,0,0,0,0,0,0,0
665,129,246,-364,16634,0,0,0,0,0,0,0,0,0,0,0
666,129,404,-414,16588,0,0,0,0,0,0,0,0,0,0,0
667,129,332,-364,16146,0,0,0,0,0,0,0,0,0,0,0
668,129,212,-558,15904,0,0,0,0,0,0,0,0,0,0,0
669,129,72,-444,15792,0,0,0,0,0,0,0,0,0,0,0
670,129,228,-362,17132,0,0,0,0,0,0,0,0,0,0,0
671,129,274,-472,16532,0,0,0,0,0,0,0,0,0,0,0
672,129,332,-448,16458,0,0,0,0,0,0,0,0,0,0,0
673,129,350,-502,16260,0,0,0,0,0,0,0,0,0,0,0
674,129,376,-264,16334,0,0,0,0,0,0,0,0,0,0,0
675,129,306,-394,16462,0,0,0,0,0,0,0,0,0,0,0
676,129,142,-216,16304,0,0,0,0,0,0,0,0,0,0,0
677,129,322,-250,16194,0,0,0,0,0,0,0,0,0,0,0
678,129,440,-364,16386,0,0,0,0,0,0,0,0,0,0,0
679,129,276,-454,16422,0,0,0,0,0,0,0,0,0,0,0
680,129,248,-334,16430,0,0,0,0,0,0,0,0,0,0,0
681,129,342,-420,16194,0,0,0,0,0,0,0,0,0,0,0
682,129,418,-442,16378,0,0,0,0,0,0,0,0,0,0,0
683,129,340,-302,16278,0,0,0,0,0,0,0,0,0,0,0
684,129,374,-412,16620,0,0,0,0,0,0,0,0,0,0,0
685,129,232,-474,15934,0,0,0,0,0,0,0,0,0,0,0
686,129,350,-204,16712,0,0,0,0,0,0,0,0,0,0,0
687,129,344,-394,16746,0,0,0,0,0,0,0,0,0,0,0
688,129,274,-304,16570,0,0,0,0,0,0,0,0,0,0,0
689,129,428,-298,16142,0,0,0,0,0,0,0,0,0,0,0
690,129,328,-322,16312,0,0,0,0,0,0,0,0,0,0,0
691,129,230,-204,16404,0,0,0,0,0,0,0,0,0,0,0
692,129,280,-244,16430,0,0,0,0,0,0,0,0,0,0,0
693,129,302,-366,16298,0,0,0,0,0,0,0,0,0,0,0
694,129,416,-412,16514,0,0,0,0,0,0,0,0,0,0,0
695,129,656,-384,15956,0,0,0,0,0,0,0,0,0,0,0
696,129,1262,-840,15234,0,0,0,0,0,0,0,0,0,0,0
