ProgrNum,PacketType,AccX,AccY,AccZ,GyrX,GyrY,GyrZ,MagX,MagY,MagZ,Q0,Q1,Q2,Q3,Vbat
0,129,1286,15832,-612,0,0,0,0,0,0,0,0,0,0,0
1,129,842,16022,-628,0,0,0,0,0,0,0,0,0,0,0
2,129,1008,15948,-744,0,0,0,0,0,0,0,0,0,0,0
3,129,1092,15796,-644,0,0,0,0,0,0,0,0,0,0,0
4,129,682,15610,-528,0,0,0,0,0,0,0,0,0,0,0
5,129,182,16612,-664,0,0,0,0,0,0,0,0,0,0,0
6,129,1638,16436,-1242,0,0,0,0,0,0,0,0,0,0,0
7,129,946,16732,-516,0,0,0,0,0,0,0,0,0,0,0
8,129,-36,16182,-810,0,0,0,0,0,0,0,0,0,0,0
9,129,1196,16244,-822,0,0,0,0,0,0,0,0,0,0,0
10,129,1152,16032,-1046,0,0,0,0,0,0,0,0,0,0,0
11,129,308,16440,-912,0,0,0,0,0,0,0,0,0,0,0
12,129,-194,16338,-1056,0,0,0,0,0,0,0,0,0,0,0
13,129,1058,16460,-1068,0,0,0,0,0,0,0,0,0,0,0
14,129,788,16174,-1158,0,0,0,0,0,0,0,0,0,0,0
15,129,648,16468,-1328,0,0,0,0,0,0,0,0,0,0,0
16,129,1676,16230,-1280,0,0,0,0,0,0,0,0,0,0,0
17,129,1080,16114,-1092,0,0,0,0,0,0,0,0,0,0,0
18,129,1360,16176,-1022,0,0,0,0,0,0,0,0,0,0,0
19,129,1252,16024,-1096,0,0,0,0,0,0,0,0,0,0,0
20,129,1764,16600,-1550,0,0,0,0,0,0,0,0,0,0,0
21,129,654,17612,-1642,0,0,0,0,0,0,0,0,0,0,0
22,129,1968,16960,-1882,0,0,0,0,0,0,0,0,0,0,0
23,129,1814,17710,-2552,0,0,0,0,0,0,0,0,0,0,0
24,129,1946,17974,-2408,0,0,0,0,0,0,0,0,0,0,0
25,129,2090,18324,-2272,0,0,0,0,0,0,0,0,0,0,0
26,129,1258,18070,-1504,0,0,0,0,0,0,0,0,0,0,0
27,129,-476,17602,-552,0,0,0,0,0,0,0,0,0,0,0
28,129,-1528,18202,128,0,0,0,0,0,0,0,0,0,0,0
29,129,-2046,18628,490,0,0,0,0,0,0,0,0,0,0,0
30,129,660,17740,-180,0,0,0,0,0,0,0,0,0,0,0
31,129,664,16784,-292,0,0,0,0,0,0,0,0,0,0,0
32,129,1142,16758,-72,0,0,0,0,0,0,0,0,0,0,0
33,129,-104,16354,68,0,0,0,0,0,0,0,0,0,0,0
34,129,-162,16776,214,0,0,0,0,0,0,0,0,0,0,0
35,129,-2064,16684,-44,0,0,0,0,0,0,0,0,0,0,0
36,129,-736,14652,-414,0,0,0,0,0,0,0,0,0,0,0
37,129,-406,13596,-620,0,0,0,0,0,0,0,0,0,0,0
38,129,-682,14502,-346,0,0,0,0,0,0,0,0,0,0,0
39,129,-468,14914,-982,0,0,0,0,0,0,0,0,0,0,0
40,129,-608,13774,-1140,0,0,0,0,0,0,0,0,0,0,0
41,129,-1248,13078,-1018,0,0,0,0,0,0,0,0,0,0,0
42,129,-1294,14070,-180,0,0,0,0,0,0,0,0,0,0,0
43,129,-38,15112,-1196,0,0,0,0,0,0,0,0,0,0,0
44,129,-538,15002,-442,0,0,0,0,0,0,0,0,0,0,0
45,129,338,14286,-588,0,0,0,0,0,0,0,0,0,0,0
46,129,1340,14140,-1166,0,0,0,0,0,0,0,0,0,0,0
47,129,2288,14928,-1230,0,0,0,0,0,0,0,0,0,0,0
48,129,2226,17000,-1360,0,0,0,0,0,0,0,0,0,0,0
49,129,1476,17344,-980,0,0,0,0,0,0,0,0,0,0,0
50,129,598,16960,-220,0,0,0,0,0,0,0,0,0,0,0
51,129,-824,17544,-290,0,0,0,0,0,0,0,0,0,0,0
52,129,-1134,18224,-62,0,0,0,0,0,0,0,0,0,0,0
53,129,260,17578,-794,0,0,0,0,0,0,0,0,0,0,0
54,129,-560,17508,-532,0,0,0,0,0,0,0,0,0,0,0
55,129,-256,17056,-478,0,0,0,0,0,0,0,0,0,0,0
56,129,-50,15702,-694,0,0,0,0,0,0,0,0,0,0,0
57,129,-52,15878,-666,0,0,0,0,0,0,0,0,0,0,0
58,129,124,15678,-802,0,0,0,0,0,0,0,0,0,0,0
59,129,644,15806,-1136,0,0,0,0,0,0,0,0,0,0,0
60,129,872,15692,-1220,0,0,0,0,0,0,0,0,0,0,0
61,129,486,16090,-1064,0,0,0,0,0,0,0,0,0,0,0
62,129,-40,16360,-758,0,0,0,0,0,0,0,0,0,0,0
63,129,384,16280,-912,0,0,0,0,0,0,0,0,0,0,0
64,129,114,16520,-740,0,0,0,0,0,0,0,0,0,0,0
65,129,174,16712,-732,0,0,0,0,0,0,0,0,0,0,0
66,129,442,16562,-574,0,0,0,0,0,0,0,0,0,0,0
67,129,-308,16518,-536,0,0,0,0,0,0,0,0,0,0,0
68,129,-634,16526,-172,0,0,0,0,0,0,0,0,0,0,0
69,129,-278,16444,-248,0,0,0,0,0,0,0,0,0,0,0
70,129,562,16168,-622,0,0,0,0,0,0,0,0,0,0,0
71,129,-206,16312,-472,0,0,0,0,0,0,0,0,0,0,0
72,129,-568,16388,-528,0,0,0,0,0,0,0,0,0,0,0
73,129,184,15718,-794,0,0,0,0,0,0,0,0,0,0,0
74,129,90,16372,-894,0,0,0,0,0,0,0,0,0,0,0
75,129,142,16610,-1070,0,0,0,0,0,0,0,0,0,0,0
76,129,-126,16726,-956,0,0,0,0,0,0,0,0,0,0,0
77,129,522,16170,-1036,0,0,0,0,0,0,0,0,0,0,0
78,129,808,16156,-1172,0,0,0,0,0,0,0,0,0,0,0
79,129,-22,16418,-952,0,0,0,0,0,0,0,0,0,0,0
80,129,98,16654,-840,0,0,0,0,0,0,0,0,0,0,0
81,129,-284,16888,-818,0,0,0,0,0,0,0,0,0,0,0
82,129,566,16256,-936,0,0,0,0,0,0,0,0,0,0,0
83,129,-206,16154,-768,0,0,0,0,0,0,0,0,0,0,0
84,129,-118,16204,-530,0,0,0,0,0,0,0,0,0,0,0
85,129,328,16114,-802,0,0,0,0,0,0,0,0,0,0,0
86,129,74,16344,-868,0,0,0,0,0,0,0,0,0,0,0
87,129,228,16626,-1182,0,0,0,0,0,0,0,0,0,0,0
88,129,250,16546,-1106,0,0,0,0,0,0,0,0,0,0,0
89,129,-414,16560,-876,0,0,0,0,0,0,0,0,0,0,0
90,129,-156,16104,-578,0,0,0,0,0,0,0,0,0,0,0
91,129,184,16004,-736,0,0,0,0,0,0,0,0,0,0,0
92,129,216,16228,-810,0,0,0,0,0,0,0,0,0,0,0
93,129,-94,16344,-736,0,0,0,0,0,0,0,0,0,0,0
94,129,40,16158,-846,0,0,0,0,0,0,0,0,0,0,0
95,129,240,16118,-720,0,0,0,0,0,0,0,0,0,0,0
96,129,286,16456,-504,0,0,0,0,0,0,0,0,0,0,0
97,129,-68,16476,-546,0,0,0,0,0,0,0,0,0,0,0
98,129,-332,16394,-232,0,0,0,0,0,0,0,0,0,0,0
99,129,-290,16412,-520,0,0,0,0,0,0,0,0,0,0,0
100,129,-236,16276,-532,0,0,0,0,0,0,0,0,0,0,0
101,129,-82,16426,-880,0,0,0,0,0,0,0,0,0,0,0
102,129,16,16464,-1122,0,0,0,0,0,0,0,0,0,0,0
103,129,68,16344,-1066,0,0,0,0,0,0,0,0,0,0,0
104,129,14,16292,-802,0,0,0,0,0,0,0,0,0,0,0
105,129,-152,16026,-694,0,0,0,0,0,0,0,0,0,0,0
106,129,300,16268,-844,0,0,0,0,0,0,0,0,0,0,0
107,129,-30,16490,-1008,0,0,0,0,0,0,0,0,0,0,0
108,129,-130,16994,-950,0,0,0,0,0,0,0,0,0,0,0
109,129,-334,16632,-842,0,0,0,0,0,0,0,0,0,0,0
110,129,-184,16468,-828,0,0,0,0,0,0,0,0,0,0,0
111,129,302,16240,-574,0,0,0,0,0,0,0,0,0,0,0
112,129,-284,16586,-608,0,0,0,0,0,0,0,0,0,0,0
113,129,-68,15954,-692,0,0,0,0,0,0,0,0,0,0,0
114,129,-316,16302,-642,0,0,0,0,0,0,0,0,0,0,0
115,129,-338,16258,-502,0,0,0,0,0,0,0,0,0,0,0
116,129,348,16178,-654,0,0,0,0,0,0,0,0,0,0,0
117,129,-272,16078,-794,0,0,0,0,0,0,0,0,0,0,0
118,129,-474,16192,-464,0,0,0,0,0,0,0,0,0,0,0
119,129,-368,16244,-748,0,0,0,0,0,0,0,0,0,0,0
120,129,74,16468,-990,0,0,0,0,0,0,0,0,0,0,0
121,129,-52,16768,-688,0,0,0,0,0,0,0,0,0,0,0
122,129,-154,16490,-758,0,0,0,0,0,0,0,0,0,0,0
123,129,-436,16314,-798,0,0,0,0,0,0,0,0,0,0,0
124,129,-228,16548,-782,0,0,0,0,0,0,0,0,0,0,0
125,129,18,16482,-1062,0,0,0,0,0,0,0,0,0,0,0
126,129,-564,16456,-782,0,0,0,0,0,0,0,0,0,0,0
127,129,-514,16322,-882,0,0,0,0,0,0,0,0,0,0,0
128,129,-170,16240,-798,0,0,0,0,0,0,0,0,0,0,0
129,129,-176,16400,-784,0,0,0,0,0,0,0,0,0,0,0
130,129,-238,16132,-770,0,0,0,0,0,0,0,0,0,0,0
131,129,198,15804,-760,0,0,0,0,0,0,0,0,0,0,0
132,129,-404,16466,-782,0,0,0,0,0,0,0,0,0,0,0
133,129,-268,16718,-1094,0,0,0,0,0,0,0,0,0,0,0
134,129,24,16506,-946,0,0,0,0,0,0,0,0,0,0,0
135,129,180,16338,-770,0,0,0,0,0,0,0,0,0,0,0
136,129,-20,16452,-816,0,0,0,0,0,0,0,0,0,0,0
137,129,-84,15948,-680,0,0,0,0,0,0,0,0,0,0,0
138,129,-350,16252,-778,0,0,0,0,0,0,0,0,0,0,0
139,129,-282,16190,-778,0,0,0,0,0,0,0,0,0,0,0
140,129,-166,16276,-822,0,0,0,0,0,0,0,0,0,0,0
141,129,210,16056,-750,0,0,0,0,0,0,0,0,0,0,0
142,129,-338,16094,-622,0,0,0,0,0,0,0,0,0,0,0
143,129,206,15832,-804,0,0,0,0,0,0,0,0,0,0,0
144,129,-204,16506,-996,0,0,0,0,0,0,0,0,0,0,0
145,129,2,16370,-1124,0,0,0,0,0,0,0,0,0,0,0
146,129,-266,16860,-1192,0,0,0,0,0,0,0,0,0,0,0
147,129,-146,16940,-1256,0,0,0,0,0,0,0,0,0,0,0
148,129,-160,16694,-1042,0,0,0,0,0,0,0,0,0,0,0
149,129,-594,16834,-634,0,0,0,0,0,0,0,0,0,0,0
150,129,-478,16008,-586,0,0,0,0,0,0,0,0,0,0,0
151,129,-676,16208,-586,0,0,0,0,0,0,0,0,0,0,0
152,129,-400,16364,-796,0,0,0,0,0,0,0,0,0,0,0
153,129,-210,16118,-1102,0,0,0,0,0,0,0,0,0,0,0
154,129,-140,16432,-918,0,0,0,0,0,0,0,0,0,0,0
155,129,110,16598,-848,0,0,0,0,0,0,0,0,0,0,0
156,129,170,15890,-716,0,0,0,0,0,0,0,0,0,0,0
157,129,154,16066,-1034,0,0,0,0,0,0,0,0,0,0,0
158,129,48,16146,-1056,0,0,0,0,0,0,0,0,0,0,0
159,129,74,16668,-1218,0,0,0,0,0,0,0,0,0,0,0
160,129,-62,16078,-822,0,0,0,0,0,0,0,0,0,0,0
161,129,0,16462,-856,0,0,0,0,0,0,0,0,0,0,0
162,129,-410,16402,-704,0,0,0,0,0,0,0,0,0,0,0
163,129,-170,16500,-724,0,0,0,0,0,0,0,0,0,0,0
164,129,-348,16218,-696,0,0,0,0,0,0,0,0,0,0,0
165,129,64,15948,-704,0,0,0,0,0,0,0,0,0,0,0
166,129,-390,16406,-396,0,0,0,0,0,0,0,0,0,0,0
167,129,-258,16330,-540,0,0,0,0,0,0,0,0,0,0,0
168,129,48,16186,-780,0,0,0,0,0,0,0,0,0,0,0
169,129,338,16146,-742,0,0,0,0,0,0,0,0,0,0,0
170,129,104,16400,-844,0,0,0,0,0,0,0,0,0,0,0
171,129,252,16478,-1102,0,0,0,0,0,0,0,0,0,0,0
172,129,-134,16370,-908,0,0,0,0,0,0,0,0,0,0,0
173,129,22,16112,-760,0,0,0,0,0,0,0,0,0,0,0
174,129,-320,16434,-774,0,0,0,0,0,0,0,0,0,0,0
175,129,-214,16542,-1058,0,0,0,0,0,0,0,0,0,0,0
176,129,80,16400,-916,0,0,0,0,0,0,0,0,0,0,0
177,129,-8,16404,-1036,0,0,0,0,0,0,0,0,0,0,0
178,129,-224,16472,-808,0,0,0,0,0,0,0,0,0,0,0
179,129,-12,16262,-816,0,0,0,0,0,0,0,0,0,0,0
180,129,42,16128,-764,0,0,0,0,0,0,0,0,0,0,0
181,129,224,16028,-732,0,0,0,0,0,0,0,0,0,0,0
182,129,84,16166,-894,0,0,0,0,0,0,0,0,0,0,0
183,129,114,16150,-622,0,0,0,0,0,0,0,0,0,0,0
184,129,-38,16654,-524,0,0,0,0,0,0,0,0,0,0,0
185,129,80,16438,-894,0,0,0,0,0,0,0,0,0,0,0
186,129,-344,16462,-850,0,0,0,0,0,0,0,0,0,0,0
187,129,-278,16290,-786,0,0,0,0,0,0,0,0,0,0,0
188,129,-110,16172,-686,0,0,0,0,0,0,0,0,0,0,0
189,129,-44,16394,-696,0,0,0,0,0,0,0,0,0,0,0
190,129,-202,16416,-728,0,0,0,0,0,0,0,0,0,0,0
191,129,144,16396,-928,0,0,0,0,0,0,0,0,0,0,0
192,129,-302,16396,-622,0,0,0,0,0,0,0,0,0,0,0
193,129,-226,16430,-890,0,0,0,0,0,0,0,0,0,0,0
194,129,186,16268,-926,0,0,0,0,0,0,0,0,0,0,0
195,129,204,16166,-916,0,0,0,0,0,0,0,0,0,0,0
196,129,128,16086,-672,0,0,0,0,0,0,0,0,0,0,0
197,129,-406,16186,-748,0,0,0,0,0,0,0,0,0,0,0
198,129,-126,16168,-586,0,0,0,0,0,0,0,0,0,0,0
199,129,48,16352,-688,0,0,0,0,0,0,0,0,0,0,0
200,129,-142,16420,-456,0,0,0,0,0,0,0,0,0,0,0
201,129,-262,16304,-628,0,0,0,0,0,0,0,0,0,0,0
202,129,104,16136,-748,0,0,0,0,0,0,0,0,0,0,0
203,129,-100,16442,-760,0,0,0,0,0,0,0,0,0,0,0
204,129,-138,16432,-798,0,0,0,0,0,0,0,0,0,0,0
205,129,-72,16096,-752,0,0,0,0,0,0,0,0,0,0,0
206,129,-142,16394,-996,0,0,0,0,0,0,0,0,0,0,0
207,129,-202,16482,-838,0,0,0,0,0,0,0,0,0,0,0
208,129,448,16058,-976,0,0,0,0,0,0,0,0,0,0,0
209,129,-52,16162,-1050,0,0,0,0,0,0,0,0,0,0,0
210,129,-166,16168,-760,0,0,0,0,0,0,0,0,0,0,0
211,129,220,16180,-872,0,0,0,0,0,0,0,0,0,0,0
212,129,-188,16448,-776,0,0,0,0,0,0,0,0,0,0,0
213,129,104,16132,-684,0,0,0,0,0,0,0,0,0,0,0
214,129,134,16066,-640,0,0,0,0,0,0,0,0,0,0,0
215,129,300,16510,-1110,0,0,0,0,0,0,0,0,0,0,0
216,129,-214,16702,-888,0,0,0,0,0,0,0,0,0,0,0
217,129,-342,16736,-920,0,0,0,0,0,0,0,0,0,0,0
218,129,-336,16608,-918,0,0,0,0,0,0,0,0,0,0,0
219,129,-196,16728,-674,0,0,0,0,0,0,0,0,0,0,0
220,129,206,16192,-688,0,0,0,0,0,0,0,0,0,0,0
221,129,182,15956,-904,0,0,0,0,0,0,0,0,0,0,0
222,129,-306,16450,-764,0,0,0,0,0,0,0,0,0,0,0
223,129,-128,16478,-932,0,0,0,0,0,0,0,0,0,0,0
224,129,448,16342,-894,0,0,0,0,0,0,0,0,0,0,0
225,129,10,16240,-882,0,0,0,0,0,0,0,0,0,0,0
226,129,224,16174,-718,0,0,0,0,0,0,0,0,0,0,0
227,129,230,16100,-750,0,0,0,0,0,0,0,0,0,0,0
228,129,276,16196,-802,0,0,0,0,0,0,0,0,0,0,0
229,129,86,16214,-896,0,0,0,0,0,0,0,0,0,0,0
230,129,-252,16546,-918,0,0,0,0,0,0,0,0,0,0,0
231,129,-324,16554,-986,0,0,0,0,0,0,0,0,0,0,0
232,129,110,16296,-908,0,0,0,0,0,0,0,0,0,0,0
233,129,36,16582,-1100,0,0,0,0,0,0,0,0,0,0,0
234,129,-1266,17354,-1338,0,0,0,0,0,0,0,0,0,0,0
235,129,86,16200,-1436,0,0,0,0,0,0,0,0,0,0,0
236,129,224,16498,-1028,0,0,0,0,0,0,0,0,0,0,0
237,129,680,16318,-618,0,0,0,0,0,0,0,0,0,0,0
238,129,268,15990,-1206,0,0,0,0,0,0,0,0,0,0,0
239,129,-128,16326,-1740,0,0,0,0,0,0,0,0,0,0,0
240,129,1086,15826,-900,0,0,0,0,0,0,0,0,0,0,0
241,129,496,15972,-646,0,0,0,0,0,0,0,0,0,0,0
242,129,266,16108,-494,0,0,0,0,0,0,0,0,0,0,0
243,129,394,15878,-724,0,0,0,0,0,0,0,0,0,0,0
244,129,-700,16378,-592,0,0,0,0,0,0,0,0,0,0,0
245,129,-410,16782,-994,0,0,0,0,0,0,0,0,0,0,0
246,129,266,17030,-948,0,0,0,0,0,0,0,0,0,0,0
247,129,-328,16800,-956,0,0,0,0,0,0,0,0,0,0,0
248,129,504,16496,456,0,0,0,0,0,0,0,0,0,0,0
249,129,-306,16428,-506,0,0,0,0,0,0,0,0,0,0,0
250,129,20,16300,-570,0,0,0,0,0,0,0,0,0,0,0
251,129,-928,16456,-3146,0,0,0,0,0,0,0,0,0,0,0
252,129,-396,16102,-1006,0,0,0,0,0,0,0,0,0,0,0
253,129,20,16302,-830,0,0,0,0,0,0,0,0,0,0,0
254,129,96,16186,-484,0,0,0,0,0,0,0,0,0,0,0
255,129,138,16510,-132,0,0,0,0,0,0,0,0,0,0,0
256,129,2,16468,-462,0,0,0,0,0,0,0,0,0,0,0
257,129,238,16396,-250,0,0,0,0,0,0,0,0,0,0,0
258,129,464,16442,30,0,0,0,0,0,0,0,0,0,0,0
259,129,-88,16816,182,0,0,0,0,0,0,0,0,0,0,0
260,129,-162,16956,-564,0,0,0,0,0,0,0,0,0,0,0
261,129,-214,16398,-426,0,0,0,0,0,0,0,0,0,0,0
262,129,316,16318,452,0,0,0,0,0,0,0,0,0,0,0
263,129,12,16928,1848,0,0,0,0,0,0,0,0,0,0,0
264,129,-176,16594,2588,0,0,0,0,0,0,0,0,0,0,0
265,129,484,16206,2450,0,0,0,0,0,0,0,0,0,0,0
266,129,516,16246,2408,0,0,0,0,0,0,0,0,0,0,0
267,129,482,15906,5384,0,0,0,0,0,0,0,0,0,0,0
268,129,958,16002,4138,0,0,0,0,0,0,0,0,0,0,0
269,129,810,15630,4390,0,0,0,0,0,0,0,0,0,0,0
270,129,2226,15720,5606,0,0,0,0,0,0,0,0,0,0,0
271,129,332,16148,7654,0,0,0,0,0,0,0,0,0,0,0
272,129,990,15600,7308,0,0,0,0,0,0,0,0,0,0,0
273,129,1378,15256,9232,0,0,0,0,0,0,0,0,0,0,0
274,129,1512,13746,10722,0,0,0,0,0,0,0,0,0,0,0
275,129,1780,13890,10768,0,0,0,0,0,0,0,0,0,0,0
276,129,260,13176,10900,0,0,0,0,0,0,0,0,0,0,0
277,129,496,12196,14318,0,0,0,0,0,0,0,0,0,0,0
278,129,702,12434,11430,0,0,0,0,0,0,0,0,0,0,0
279,129,294,10910,11656,0,0,0,0,0,0,0,0,0,0,0
280,129,388,9224,12514,0,0,0,0,0,0,0,0,0,0,0
281,129,864,7264,13818,0,0,0,0,0,0,0,0,0,0,0
282,129,1436,5446,13332,0,0,0,0,0,0,0,0,0,0,0
283,129,1364,5498,13218,0,0,0,0,0,0,0,0,0,0,0
284,129,2022,3116,15404,0,0,0,0,0,0,0,0,0,0,0
285,129,1266,3022,15088,0,0,0,0,0,0,0,0,0,0,0
286,129,1918,2302,15486,0,0,0,0,0,0,0,0,0,0,0
287,129,1546,1758,16364,0,0,0,0,0,0,0,0,0,0,0
288,129,1648,2068,14504,0,0,0,0,0,0,0,0,0,0,0
289,129,1850,616,15668,0,0,0,0,0,0,0,0,0,0,0
290,129,1302,370,16366,0,0,0,0,0,0,0,0,0,0,0
291,129,232,1150,17286,0,0,0,0,0,0,0,0,0,0,0
292,129,1184,328,15374,0,0,0,0,0,0,0,0,0,0,0
293,129,784,-522,15154,0,0,0,0,0,0,0,0,0,0,0
294,129,986,-960,15462,0,0,0,0,0,0,0,0,0,0,0
295,129,2008,-1530,14902,0,0,0,0,0,0,0,0,0,0,0
296,129,382,-2052,15390,0,0,0,0,0,0,0,0,0,0,0
297,129,1172,-2118,15112,0,0,0,0,0,0,0,0,0,0,0
298,129,1446,-1888,15498,0,0,0,0,0,0,0,0,0,0,0
299,129,1854,-1554,15904,0,0,0,0,0,0,0,0,0,0,0
300,129,2378,-1302,16240,0,0,0,0,0,0,0,0,0,0,0
301,129,2184,-1288,16356,0,0,0,0,0,0,0,0,0,0,0
302,129,1944,-1202,16452,0,0,0,0,0,0,0,0,0,0,0
303,129,1682,-1484,16436,0,0,0,0,0,0,0,0,0,0,0
304,129,1212,-1536,16416,0,0,0,0,0,0,0,0,0,0,0
305,129,1588,-1498,15930,0,0,0,0,0,0,0,0,0,0,0
306,129,1234,-1564,16308,0,0,0,0,0,0,0,0,0,0,0
307,129,1488,-1386,16132,0,0,0,0,0,0,0,0,0,0,0
308,129,1864,-1218,16516,0,0,0,0,0,0,0,0,0,0,0
309,129,1782,-1004,16462,0,0,0,0,0,0,0,0,0,0,0
310,129,1736,-1064,16110,0,0,0,0,0,0,0,0,0,0,0
311,129,820,-1470,15732,0,0,0,0,0,0,0,0,0,0,0
312,129,1876,-864,15672,0,0,0,0,0,0,0,0,0,0,0
313,129,2000,-1050,15660,0,0,0,0,0,0,0,0,0,0,0
314,129,1896,-1152,15458,0,0,0,0,0,0,0,0,0,0,0
315,129,1928,-776,16008,0,0,0,0,0,0,0,0,0,0,0
316,129,2614,-854,16362,0,0,0,0,0,0,0,0,0,0,0
317,129,3538,-452,16728,0,0,0,0,0,0,0,0,0,0,0
318,129,2546,-308,16616,0,0,0,0,0,0,0,0,0,0,0
319,129,2166,294,17038,0,0,0,0,0,0,0,0,0,0,0
320,129,2716,268,17752,0,0,0,0,0,0,0,0,0,0,0
321,129,2818,110,14998,0,0,0,0,0,0,0,0,0,0,0
322,129,2966,-300,15614,0,0,0,0,0,0,0,0,0,0,0
323,129,1492,178,14602,0,0,0,0,0,0,0,0,0,0,0
324,129,1088,678,17516,0,0,0,0,0,0,0,0,0,0,0
325,129,2432,714,17068,0,0,0,0,0,0,0,0,0,0,0
326,129,3384,370,16564,0,0,0,0,0,0,0,0,0,0,0
327,129,2588,118,15776,0,0,0,0,0,0,0,0,0,0,0
328,129,1998,450,15370,0,0,0,0,0,0,0,0,0,0,0
329,129,2126,878,16972,0,0,0,0,0,0,0,0,0,0,0
330,129,2474,340,16290,0,0,0,0,0,0,0,0,0,0,0
331,129,2410,510,15868,0,0,0,0,0,0,0,0,0,0,0
332,129,2550,764,16356,0,0,0,0,0,0,0,0,0,0,0
333,129,2544,384,15672,0,0,0,0,0,0,0,0,0,0,0
334,129,2642,944,17324,0,0,0,0,0,0,0,0,0,0,0
335,129,2646,906,16652,0,0,0,0,0,0,0,0,0,0,0
336,129,2338,654,15788,0,0,0,0,0,0,0,0,0,0,0
337,129,1926,660,16256,0,0,0,0,0,0,0,0,0,0,0
338,129,2436,414,16358,0,0,0,0,0,0,0,0,0,0,0
339,129,2318,380,15374,0,0,0,0,0,0,0,0,0,0,0
340,129,2638,666,15640,0,0,0,0,0,0,0,0,0,0,0
341,129,1840,560,16412,0,0,0,0,0,0,0,0,0,0,0
342,129,1730,484,15602,0,0,0,0,0,0,0,0,0,0,0
343,129,2592,578,15608,0,0,0,0,0,0,0,0,0,0,0
344,129,2750,462,15964,0,0,0,0,0,0,0,0,0,0,0
345,129,1896,344,16414,0,0,0,0,0,0,0,0,0,0,0
346,129,1342,862,16798,0,0,0,0,0,0,0,0,0,0,0
347,129,1720,864,16470,0,0,0,0,0,0,0,0,0,0,0
348,129,2458,1036,15960,0,0,0,0,0,0,0,0,0,0,0
349,129,2468,1074,16634,0,0,0,0,0,0,0,0,0,0,0
350,129,2102,762,16498,0,0,0,0,0,0,0,0,0,0,0
351,129,2522,208,15416,0,0,0,0,0,0,0,0,0,0,0
352,129,2014,386,15798,0,0,0,0,0,0,0,0,0,0,0
353,129,2086,690,16596,0,0,0,0,0,0,0,0,0,0,0
354,129,1826,668,16170,0,0,0,0,0,0,0,0,0,0,0
355,129,1688,224,15910,0,0,0,0,0,0,0,0,0,0,0
356,129,2362,382,15694,0,0,0,0,0,0,0,0,0,0,0
357,129,2188,66,15670,0,0,0,0,0,0,0,0,0,0,0
358,129,1782,154,15706,0,0,0,0,0,0,0,0,0,0,0
359,129,1758,544,16260,0,0,0,0,0,0,0,0,0,0,0
360,129,1552,572,16504,0,0,0,0,0,0,0,0,0,0,0
361,129,1948,786,16526,0,0,0,0,0,0,0,0,0,0,0
362,129,1830,1158,16392,0,0,0,0,0,0,0,0,0,0,0
363,129,2100,946,16384,0,0,0,0,0,0,0,0,0,0,0
364,129,2816,564,15870,0,0,0,0,0,0,0,0,0,0,0
365,129,2334,902,16266,0,0,0,0,0,0,0,0,0,0,0
366,129,1856,608,15900,0,0,0,0,0,0,0,0,0,0,0
367,129,2012,584,15560,0,0,0,0,0,0,0,0,0,0,0
368,129,2064,728,16598,0,0,0,0,0,0,0,0,0,0,0
369,129,1816,396,16022,0,0,0,0,0,0,0,0,0,0,0
370,129,2220,578,16150,0,0,0,0,0,0,0,0,0,0,0
371,129,1848,362,16188,0,0,0,0,0,0,0,0,0,0,0
372,129,1492,636,16680,0,0,0,0,0,0,0,0,0,0,0
373,129,1656,222,15900,0,0,0,0,0,0,0,0,0,0,0
374,129,1396,232,16040,0,0,0,0,0,0,0,0,0,0,0
375,129,1708,838,16038,0,0,0,0,0,0,0,0,0,0,0
376,129,1750,814,17038,0,0,0,0,0,0,0,0,0,0,0
377,129,1406,618,16268,0,0,0,0,0,0,0,0,0,0,0
378,129,1650,566,16318,0,0,0,0,0,0,0,0,0,0,0
379,129,1798,352,15502,0,0,0,0,0,0,0,0,0,0,0
380,129,2130,720,16388,0,0,0,0,0,0,0,0,0,0,0
381,129,2026,764,15736,0,0,0,0,0,0,0,0,0,0,0
382,129,2234,788,15682,0,0,0,0,0,0,0,0,0,0,0
383,129,2360,740,16274,0,0,0,0,0,0,0,0,0,0,0
384,129,2112,978,15960,0,0,0,0,0,0,0,0,0,0,0
385,129,1876,968,16288,0,0,0,0,0,0,0,0,0,0,0
386,129,1746,466,16086,0,0,0,0,0,0,0,0,0,0,0
387,129,1350,868,16674,0,0,0,0,0,0,0,0,0,0,0
388,129,1596,922,17172,0,0,0,0,0,0,0,0,0,0,0
389,129,1822,650,16492,0,0,0,0,0,0,0,0,0,0,0
390,129,2270,310,15458,0,0,0,0,0,0,0,0,0,0,0
391,129,2548,370,15908,0,0,0,0,0,0,0,0,0,0,0
392,129,1928,474,15664,0,0,0,0,0,0,0,0,0,0,0
393,129,2228,762,16490,0,0,0,0,0,0,0,0,0,0,0
394,129,1746,628,16452,0,0,0,0,0,0,0,0,0,0,0
395,129,1988,390,15506,0,0,0,0,0,0,0,0,0,0,0
396,129,1490,848,15892,0,0,0,0,0,0,0,0,0,0,0
397,129,1226,1094,16670,0,0,0,0,0,0,0,0,0,0,0
398,129,2352,936,16584,0,0,0,0,0,0,0,0,0,0,0
399,129,1808,970,15878,0,0,0,0,0,0,0,0,0,0,0
400,129,1836,776,17238,0,0,0,0,0,0,0,0,0,0,0
401,129,2132,466,15928,0,0,0,0,0,0,0,0,0,0,0
402,129,1886,648,16544,0,0,0,0,0,0,0,0,0,0,0
403,129,2158,734,16134,0,0,0,0,0,0,0,0,0,0,0
404,129,2020,540,16012,0,0,0,0,0,0,0,0,0,0,0
405,129,1610,572,15720,0,0,0,0,0,0,0,0,0,0,0
406,129,1900,568,16374,0,0,0,0,0,0,0,0,0,0,0
407,129,1870,372,15602,0,0,0,0,0,0,0,0,0,0,0
408,129,1874,694,16106,0,0,0,0,0,0,0,0,0,0,0
409,129,1774,798,16288,0,0,0,0,0,0,0,0,0,0,0
410,129,1688,544,15788,0,0,0,0,0,0,0,0,0,0,0
411,129,2308,1052,16858,0,0,0,0,0,0,0,0,0,0,0
412,129,1470,1024,16770,0,0,0,0,0,0,0,0,0,0,0
413,129,2214,12,15040,0,0,0,0,0,0,0,0,0,0,0
414,129,1710,244,16146,0,0,0,0,0,0,0,0,0,0,0
415,129,2144,340,16246,0,0,0,0,0,0,0,0,0,0,0
416,129,1342,864,16558,0,0,0,0,0,0,0,0,0,0,0
417,129,1524,1042,16374,0,0,0,0,0,0,0,0,0,0,0
418,129,2058,690,16722,0,0,0,0,0,0,0,0,0,0,0
419,129,1446,738,16104,0,0,0,0,0,0,0,0,0,0,0
420,129,1920,560,16218,0,0,0,0,0,0,0,0,0,0,0
421,129,2242,640,15942,0,0,0,0,0,0,0,0,0,0,0
422,129,2306,750,15846,0,0,0,0,0,0,0,0,0,0,0
423,129,2248,644,16068,0,0,0,0,0,0,0,0,0,0,0
424,129,1940,562,15648,0,0,0,0,0,0,0,0,0,0,0
425,129,1930,822,16866,0,0,0,0,0,0,0,0,0,0,0
426,129,2020,716,16524,0,0,0,0,0,0,0,0,0,0,0
427,129,1976,624,16584,0,0,0,0,0,0,0,0,0,0,0
428,129,2240,436,15850,0,0,0,0,0,0,0,0,0,0,0
429,129,1946,516,15684,0,0,0,0,0,0,0,0,0,0,0
430,129,1542,614,16048,0,0,0,0,0,0,0,0,0,0,0
431,129,1858,736,16244,0,0,0,0,0,0,0,0,0,0,0
432,129,2034,488,16114,0,0,0,0,0,0,0,0,0,0,0
433,129,2044,476,15326,0,0,0,0,0,0,0,0,0,0,0
434,129,1786,614,16236,0,0,0,0,0,0,0,0,0,0,0
435,129,2026,588,15552,0,0,0,0,0,0,0,0,0,0,0
436,129,2490,-80,16214,0,0,0,0,0,0,0,0,0,0,0
437,129,1754,904,17196,0,0,0,0,0,0,0,0,0,0,0
438,129,1434,774,16186,0,0,0,0,0,0,0,0,0,0,0
439,129,1978,706,16114,0,0,0,0,0,0,0,0,0,0,0
440,129,2098,368,15770,0,0,0,0,0,0,0,0,0,0,0
441,129,1710,474,15970,0,0,0,0,0,0,0,0,0,0,0
442,129,1402,648,16862,0,0,0,0,0,0,0,0,0,0,0
443,129,1976,640,15806,0,0,0,0,0,0,0,0,0,0,0
444,129,1268,630,16394,0,0,0,0,0,0,0,0,0,0,0
445,129,984,640,16634,0,0,0,0,0,0,0,0,0,0,0
446,129,2538,768,16030,0,0,0,0,0,0,0,0,0,0,0
447,129,2552,942,16402,0,0,0,0,0,0,0,0,0,0,0
448,129,2242,710,16354,0,0,0,0,0,0,0,0,0,0,0
449,129,2080,414,15556,0,0,0,0,0,0,0,0,0,0,0
450,129,3074,376,15204,0,0,0,0,0,0,0,0,0,0,0
451,129,1908,520,16442,0,0,0,0,0,0,0,0,0,0,0
452,129,1880,234,16550,0,0,0,0,0,0,0,0,0,0,0
453,129,2434,-152,15384,0,0,0,0,0,0,0,0,0,0,0
454,129,1540,-72,15552,0,0,0,0,0,0,0,0,0,0,0
455,129,1216,284,16298,0,0,0,0,0,0,0,0,0,0,0
456,129,1472,690,16618,0,0,0,0,0,0,0,0,0,0,0
457,129,2046,648,16538,0,0,0,0,0,0,0,0,0,0,0
458,129,1726,416,16474,0,0,0,0,0,0,0,0,0,0,0
459,129,2648,552,16444,0,0,0,0,0,0,0,0,0,0,0
460,129,2520,586,15894,0,0,0,0,0,0,0,0,0,0,0
461,129,2160,586,15824,0,0,0,0,0,0,0,0,0,0,0
462,129,1590,394,15766,0,0,0,0,0,0,0,0,0,0,0
463,129,1816,604,15484,0,0,0,0,0,0,0,0,0,0,0
464,129,2350,590,17168,0,0,0,0,0,0,0,0,0,0,0
465,129,2114,686,16052,0,0,0,0,0,0,0,0,0,0,0
466,129,1632,800,16336,0,0,0,0,0,0,0,0,0,0,0
467,129,1742,694,16606,0,0,0,0,0,0,0,0,0,0,0
468,129,2288,506,15626,0,0,0,0,0,0,0,0,0,0,0
469,129,1782,394,16644,0,0,0,0,0,0,0,0,0,0,0
470,129,1620,670,15924,0,0,0,0,0,0,0,0,0,0,0
471,129,1862,442,16350,0,0,0,0,0,0,0,0,0,0,0
472,129,2182,-4,15794,0,0,0,0,0,0,0,0,0,0,0
473,129,2426,106,15940,0,0,0,0,0,0,0,0,0,0,0
474,129,2052,388,16120,0,0,0,0,0,0,0,0,0,0,0
475,129,2162,404,15938,0,0,0,0,0,0,0,0,0,0,0
476,129,1780,918,16546,0,0,0,0,0,0,0,0,0,0,0
477,129,1938,968,16230,0,0,0,0,0,0,0,0,0,0,0
478,129,2242,818,16872,0,0,0,0,0,0,0,0,0,0,0
479,129,1932,590,15614,0,0,0,0,0,0,0,0,0,0,0
480,129,2022,350,16268,0,0,0,0,0,0,0,0,0,0,0
481,129,2002,434,16362,0,0,0,0,0,0,0,0,0,0,0
482,129,1552,352,16086,0,0,0,0,0,0,0,0,0,0,0
483,129,1604,536,16394,0,0,0,0,0,0,0,0,0,0,0
484,129,1368,446,16158,0,0,0,0,0,0,0,0,0,0,0
485,129,2320,762,16148,0,0,0,0,0,0,0,0,0,0,0
486,129,2776,810,17088,0,0,0,0,0,0,0,0,0,0,0
487,129,2128,342,16114,0,0,0,0,0,0,0,0,0,0,0
488,129,1986,-92,15202,0,0,0,0,0,0,0,0,0,0,0
489,129,1722,300,15736,0,0,0,0,0,0,0,0,0,0,0
490,129,2098,442,16442,0,0,0,0,0,0,0,0,0,0,0
491,129,2276,512,16110,0,0,0,0,0,0,0,0,0,0,0
492,129,1600,500,16218,0,0,0,0,0,0,0,0,0,0,0
493,129,2036,516,16126,0,0,0,0,0,0,0,0,0,0,0
494,129,2152,380,16178,0,0,0,0,0,0,0,0,0,0,0
495,129,2034,454,16710,0,0,0,0,0,0,0,0,0,0,0
496,129,2102,344,16096,0,0,0,0,0,0,0,0,0,0,0
497,129,2212,402,15500,0,0,0,0,0,0,0,0,0,0,0
498,129,2288,306,16576,0,0,0,0,0,0,0,0,0,0,0
499,129,2040,270,15884,0,0,0,0,0,0,0,0,0,0,0
500,129,2324,368,15836,0,0,0,0,0,0,0,0,0,0,0
501,129,1838,288,15932,0,0,0,0,0,0,0,0,0,0,0
502,129,2182,856,17354,0,0,0,0,0,0,0,0,0,0,0
503,129,2054,480,15894,0,0,0,0,0,0,0,0,0,0,0
504,129,2148,398,15906,0,0,0,0,0,0,0,0,0,0,0
505,129,1770,382,16076,0,0,0,0,0,0,0,0,0,0,0
506,129,2956,480,15984,0,0,0,0,0,0,0,0,0,0,0
507,129,1810,666,16460,0,0,0,0,0,0,0,0,0,0,0
508,129,2296,492,16294,0,0,0,0,0,0,0,0,0,0,0
509,129,2056,408,15874,0,0,0,0,0,0,0,0,0,0,0
510,129,2096,690,16338,0,0,0,0,0,0,0,0,0,0,0
511,129,2228,122,15214,0,0,0,0,0,0,0,0,0,0,0
512,129,2640,516,16008,0,0,0,0,0,0,0,0,0,0,0
513,129,2120,908,16600,0,0,0,0,0,0,0,0,0,0,0
514,129,1662,866,16274,0,0,0,0,0,0,0,0,0,0,0
515,129,1714,796,17372,0,0,0,0,0,0,0,0,0,0,0
516,129,1798,290,15494,0,0,0,0,0,0,0,0,0,0,0
517,129,2738,336,15662,0,0,0,0,0,0,0,0,0,0,0
518,129,2614,416,15918,0,0,0,0,0,0,0,0,0,0,0
519,129,1836,636,16234,0,0,0,0,0,0,0,0,0,0,0
520,129,1914,714,16488,0,0,0,0,0,0,0,0,0,0,0
521,129,2370,446,15490,0,0,0,0,0,0,0,0,0,0,0
522,129,2552,250,15614,0,0,0,0,0,0,0,0,0,0,0
523,129,1550,622,16782,0,0,0,0,0,0,0,0,0,0,0
524,129,1932,400,15780,0,0,0,0,0,0,0,0,0,0,0
525,129,2172,388,16066,0,0,0,0,0,0,0,0,0,0,0
526,129,2420,502,16504,0,0,0,0,0,0,0,0,0,0,0
527,129,2390,130,15938,0,0,0,0,0,0,0,0,0,0,0
528,129,1368,404,16392,0,0,0,0,0,0,0,0,0,0,0
529,129,1956,312,16290,0,0,0,0,0,0,0,0,0,0,0
530,129,2276,472,16480,0,0,0,0,0,0,0,0,0,0,0
531,129,1990,510,15958,0,0,0,0,0,0,0,0,0,0,0
532,129,2596,608,16026,0,0,0,0,0,0,0,0,0,0,0
533,129,2280,338,15450,0,0,0,0,0,0,0,0,0,0,0
534,129,2388,404,16104,0,0,0,0,0,0,0,0,0,0,0
535,129,2162,562,16168,0,0,0,0,0,0,0,0,0,0,0
536,129,2440,562,16146,0,0,0,0,0,0,0,0,0,0,0
537,129,2060,592,16042,0,0,0,0,0,0,0,0,0,0,0
538,129,2034,458,16232,0,0,0,0,0,0,0,0,0,0,0
539,129,2114,158,15710,0,0,0,0,0,0,0,0,0,0,0
540,129,2350,584,16574,0,0,0,0,0,0,0,0,0,0,0
541,129,2240,656,15780,0,0,0,0,0,0,0,0,0,0,0
542,129,2160,690,16672,0,0,0,0,0,0,0,0,0,0,0
543,129,2246,346,15956,0,0,0,0,0,0,0,0,0,0,0
544,129,2228,306,15908,0,0,0,0,0,0,0,0,0,0,0
545,129,1796,378,16574,0,0,0,0,0,0,0,0,0,0,0
546,129,2882,484,16240,0,0,0,0,0,0,0,0,0,0,0
547,129,2668,230,15612,0,0,0,0,0,0,0,0,0,0,0
548,129,1954,-32,15790,0,0,0,0,0,0,0,0,0,0,0
549,129,2456,160,16040,0,0,0,0,0,0,0,0,0,0,0
550,129,2276,486,16498,0,0,0,0,0,0,0,0,0,0,0
551,129,2174,660,16294,0,0,0,0,0,0,0,0,0,0,0
552,129,2380,436,16220,0,0,0,0,0,0,0,0,0,0,0
553,129,2200,146,15526,0,0,0,0,0,0,0,0,0,0,0
554,129,2646,180,15468,0,0,0,0,0,0,0,0,0,0,0
555,129,2204,640,15976,0,0,0,0,0,0,0,0,0,0,0
556,129,2860,990,16518,0,0,0,0,0,0,0,0,0,0,0
557,129,2474,452,16302,0,0,0,0,0,0,0,0,0,0,0
558,129,2094,420,16002,0,0,0,0,0,0,0,0,0,0,0
559,129,2298,620,16404,0,0,0,0,0,0,0,0,0,0,0
560,129,2648,480,16238,0,0,0,0,0,0,0,0,0,0,0
561,129,2736,446,16166,0,0,0,0,0,0,0,0,0,0,0
562,129,2538,62,15832,0,0,0,0,0,0,0,0,0,0,0
563,129,2000,346,15950,0,0,0,0,0,0,0,0,0,0,0
564,129,2252,464,16644,0,0,0,0,0,0,0,0,0,0,0
565,129,2408,136,15586,0,0,0,0,0,0,0,0,0,0,0
566,129,2590,420,16560,0,0,0,0,0,0,0,0,0,0,0
567,129,2234,278,15706,0,0,0,0,0,0,0,0,0,0,0
568,129,2806,302,16106,0,0,0,0,0,0,0,0,0,0,0
569,129,2256,382,16042,0,0,0,0,0,0,0,0,0,0,0
570,129,2622,860,16884,0,0,0,0,0,0,0,0,0,0,0
571,129,2308,390,16340,0,0,0,0,0,0,0,0,0,0,0
572,129,2142,346,15568,0,0,0,0,0,0,0,0,0,0,0
573,129,2716,282,16012,0,0,0,0,0,0,0,0,0,0,0
574,129,2464,278,15866,0,0,0,0,0,0,0,0,0,0,0
575,129,2632,600,16534,0,0,0,0,0,0,0,0,0,0,0
576,129,1954,592,16006,0,0,0,0,0,0,0,0,0,0,0
577,129,2458,384,16112,0,0,0,0,0,0,0,0,0,0,0
578,129,2484,208,16012,0,0,0,0,0,0,0,0,0,0,0
579,129,2332,324,16032,0,0,0,0,0,0,0,0,0,0,0
580,129,2884,466,16054,0,0,0,0,0,0,0,0,0,0,0
581,129,2692,148,15240,0,0,0,0,0,0,0,0,0,0,0
582,129,2288,420,16286,0,0,0,0,0,0,0,0,0,0,0
583,129,2030,358,15870,0,0,0,0,0,0,0,0,0,0,0
584,129,2044,406,16942,0,0,0,0,0,0,0,0,0,0,0
585,129,2622,432,16288,0,0,0,0,0,0,0,0,0,0,0
586,129,2150,300,16164,0,0,0,0,0,0,0,0,0,0,0
587,129,2214,310,15484,0,0,0,0,0,0,0,0,0,0,0
588,129,2754,192,15856,0,0,0,0,0,0,0,0,0,0,0
589,129,2628,248,15770,0,0,0,0,0,0,0,0,0,0,0
590,129,2922,438,16182,0,0,0,0,0,0,0,0,0,0,0
591,129,2168,276,15808,0,0,0,0,0,0,0,0,0,0,0
592,129,2196,96,16022,0,0,0,0,0,0,0,0,0,0,0
593,129,2354,176,16246,0,0,0,0,0,0,0,0,0,0,0
594,129,2346,230,15978,0,0,0,0,0,0,0,0,0,0,0
595,129,2190,408,15570,0,0,0,0,0,0,0,0,0,0,0
596,129,2052,658,16526,0,0,0,0,0,0,0,0,0,0,0
597,129,2246,988,17272,0,0,0,0,0,0,0,0,0,0,0
598,129,2538,592,16606,0,0,0,0,0,0,0,0,0,0,0
599,129,2862,446,15612,0,0,0,0,0,0,0,0,0,0,0
600,129,2262,652,16510,0,0,0,0,0,0,0,0,0,0,0
601,129,3146,510,15892,0,0,0,0,0,0,0,0,0,0,0
602,129,2836,560,16214,0,0,0,0,0,0,0,0,0,0,0
603,129,2858,314,15852,0,0,0,0,0,0,0,0,0,0,0
604,129,2656,322,15794,0,0,0,0,0,0,0,0,0,0,0
605,129,3194,-2,15424,0,0,0,0,0,0,0,0,0,0,0
606,129,1834,212,16180,0,0,0,0,0,0,0,0,0,0,0
607,129,2326,-56,16062,0,0,0,0,0,0,0,0,0,0,0
608,129,2536,304,15814,0,0,0,0,0,0,0,0,0,0,0
609,129,2454,366,16658,0,0,0,0,0,0,0,0,0,0,0
610,129,2444,280,16008,0,0,0,0,0,0,0,0,0,0,0
611,129,2358,400,15780,0,0,0,0,0,0,0,0,0,0,0
612,129,2462,642,16386,0,0,0,0,0,0,0,0,0,0,0
613,129,3162,522,16324,0,0,0,0,0,0,0,0,0,0,0
614,129,2584,496,15814,0,0,0,0,0,0,0,0,0,0,0
615,129,2168,534,16498,0,0,0,0,0,0,0,0,0,0,0
616,129,2442,164,16164,0,0,0,0,0,0,0,0,0,0,0
617,129,2638,360,16008,0,0,0,0,0,0,0,0,0,0,0
618,129,2496,568,16442,0,0,0,0,0,0,0,0,0,0,0
619,129,2500,310,15682,0,0,0,0,0,0,0,0,0,0,0
620,129,2504,70,15506,0,0,0,0,0,0,0,0,0,0,0
621,129,2030,450,16674,0,0,0,0,0,0,0,0,0,0,0
622,129,2760,516,15916,0,0,0,0,0,0,0,0,0,0,0
623,129,2578,514,16302,0,0,0,0,0,0,0,0,0,0,0
624,129,2014,400,16252,0,0,0,0,0,0,0,0,0,0,0
625,129,2662,398,16574,0,0,0,0,0,0,0,0,0,0,0
626,129,2506,394,16374,0,0,0,0,0,0,0,0,0,0,0
627,129,2574,464,15858,0,0,0,0,0,0,0,0,0,0,0
628,129,2538,408,16294,0,0,0,0,0,0,0,0,0,0,0
629,129,2508,300,15570,0,0,0,0,0,0,0,0,0,0,0
630,129,2394,380,15884,0,0,0,0,0,0,0,0,0,0,0
631,129,2442,442,15908,0,0,0,0,0,0,0,0,0,0,0
632,129,2574,592,16058,0,0,0,0,0,0,0,0,0,0,0
633,129,2650,722,16236,0,0,0,0,0,0,0,0,0,0,0
634,129,2548,700,16266,0,0,0,0,0,0,0,0,0,0,0
635,129,2580,582,15778,0,0,0,0,0,0,0,0,0,0,0
636,129,2934,668,16304,0,0,0,0,0,0,0,0,0,0,0
637,129,3022,152,15386,0,0,0,0,0,0,0,0,0,0,0
638,129,1896,402,16326,0,0,0,0,0,0,0,0,0,0,0
639,129,2462,160,16052,0,0,0,0,0,0,0,0,0,0,0
640,129,2486,258,16360,0,0,0,0,0,0,0,0,0,0,0
641,129,2190,248,16176,0,0,0,0,0,0,0,0,0,0,0
642,129,2652,330,16088,0,0,0,0,0,0,0,0,0,0,0
643,129,2630,384,15918,0,0,0,0,0,0,0,0,0,0,0
644,129,2806,294,16222,0,0,0,0,0,0,0,0,0,0,0
645,129,2652,426,15730,0,0,0,0,0,0,0,0,0,0,0
646,129,2560,442,15786,0,0,0,0,0,0,0,0,0,0,0
647,129,2714,506,16470,0,0,0,0,0,0,0,0,0,0,0
648,129,2676,486,16404,0,0,0,0,0,0,0,0,0,0,0
649,129,2250,494,16088,0,0,0,0,0,0,0,0,0,0,0
650,129,2398,418,15612,0,0,0,0,0,0,0,0,0,0,0
651,129,2882,514,16130,0,0,0,0,0,0,0,0,0,0,0
652,129,2600,242,15686,0,0,0,0,0,0,0,0,0,0,0
653,129,2524,662,16442,0,0,0,0,0,0,0,0,0,0,0
654,129,2616,650,16352,0,0,0,0,0,0,0,0,0,0,0
655,129,2240,424,15570,0,0,0,0,0,0,0,0,0,0,0
656,129,2722,566,16150,0,0,0,0,0,0,0,0,0,0,0
657,129,2770,410,15862,0,0,0,0,0,0,0,0,0,0,0
658,129,2644,310,15510,0,0,0,0,0,0,0,0,0,0,0
659,129,2180,480,16148,0,0,0,0,0,0,0,0,0,0,0
660,129,2278,144,16646,0,0,0,0,0,0,0,0,0,0,0
661,129,2500,14,16376,0,0,0,0,0,0,0,0,0,0,0
662,129,2370,372,16610,0,0,0,0,0,0,0,0,0,0,0
663,129,1952,354,16256,0,0,0,0,0,0,0,0,0,0,0
664,129,2522,306,15710,0,0,0,0,0,0,0,0,0,0,0
