ProgrNum,PacketType,AccX,AccY,AccZ,GyrX,GyrY,GyrZ,MagX,MagY,MagZ,Q0,Q1,Q2,Q3,Vbat
0,129,8426,14252,408,0,0,0,0,0,0,0,0,0,0,0
1,129,8542,14406,280,0,0,0,0,0,0,0,0,0,0,0
2,129,8458,14276,224,0,0,0,0,0,0,0,0,0,0,0
3,129,8484,14338,338,0,0,0,0,0,0,0,0,0,0,0
4,129,8486,14460,262,0,0,0,0,0,0,0,0,0,0,0
5,129,8450,14302,268,0,0,0,0,0,0,0,0,0,0,0
6,129,8412,14354,282,0,0,0,0,0,0,0,0,0,0,0
7,129,8480,14420,326,0,0,0,0,0,0,0,0,0,0,0
8,129,8474,14258,306,0,0,0,0,0,0,0,0,0,0,0
9,129,8536,14328,334,0,0,0,0,0,0,0,0,0,0,0
10,129,8462,14382,332,0,0,0,0,0,0,0,0,0,0,0
11,129,8412,14258,322,0,0,0,0,0,0,0,0,0,0,0
12,129,8446,14336,302,0,0,0,0,0,0,0,0,0,0,0
13,129,8414,14242,294,0,0,0,0,0,0,0,0,0,0,0
14,129,8426,14218,402,0,0,0,0,0,0,0,0,0,0,0
15,129,8472,14358,362,0,0,0,0,0,0,0,0,0,0,0
16,129,8402,14314,304,0,0,0,0,0,0,0,0,0,0,0
17,129,8478,14410,342,0,0,0,0,0,0,0,0,0,0,0
18,129,8512,14444,378,0,0,0,0,0,0,0,0,0,0,0
19,129,8482,14306,360,0,0,0,0,0,0,0,0,0,0,0
20,129,8498,14366,292,0,0,0,0,0,0,0,0,0,0,0
21,129,8468,14338,258,0,0,0,0,0,0,0,0,0,0,0
22,129,8488,14374,318,0,0,0,0,0,0,0,0,0,0,0
23,129,8410,14376,384,0,0,0,0,0,0,0,0,0,0,0
24,129,8506,14346,284,0,0,0,0,0,0,0,0,0,0,0
25,129,8424,14288,202,0,0,0,0,0,0,0,0,0,0,0
26,129,8418,14382,268,0,0,0,0,0,0,0,0,0,0,0
27,129,8524,14336,308,0,0,0,0,0,0,0,0,0,0,0
28,129,8498,14372,162,0,0,0,0,0,0,0,0,0,0,0
29,129,8480,14406,414,0,0,0,0,0,0,0,0,0,0,0
30,129,8474,14244,244,0,0,0,0,0,0,0,0,0,0,0
31,129,8458,14380,356,0,0,0,0,0,0,0,0,0,0,0
32,129,8540,14386,354,0,0,0,0,0,0,0,0,0,0,0
33,129,8524,14326,328,0,0,0,0,0,0,0,0,0,0,0
34,129,8494,14316,388,0,0,0,0,0,0,0,0,0,0,0
35,129,8528,14408,248,0,0,0,0,0,0,0,0,0,0,0
36,129,8344,14256,290,0,0,0,0,0,0,0,0,0,0,0
37,129,8478,14316,324,0,0,0,0,0,0,0,0,0,0,0
38,129,8416,14346,322,0,0,0,0,0,0,0,0,0,0,0
39,129,8484,14238,420,0,0,0,0,0,0,0,0,0,0,0
40,129,8456,14276,382,0,0,0,0,0,0,0,0,0,0,0
41,129,8522,14302,304,0,0,0,0,0,0,0,0,0,0,0
42,129,8458,14314,316,0,0,0,0,0,0,0,0,0,0,0
43,129,8436,14314,310,0,0,0,0,0,0,0,0,0,0,0
44,129,8492,14394,326,0,0,0,0,0,0,0,0,0,0,0
45,129,8474,14370,402,0,0,0,0,0,0,0,0,0,0,0
46,129,8504,14270,526,0,0,0,0,0,0,0,0,0,0,0
47,129,8464,14352,364,0,0,0,0,0,0,0,0,0,0,0
48,129,8470,14300,272,0,0,0,0,0,0,0,0,0,0,0
49,129,8522,14272,356,0,0,0,0,0,0,0,0,0,0,0
50,129,8504,14426,324,0,0,0,0,0,0,0,0,0,0,0
51,129,8440,14288,290,0,0,0,0,0,0,0,0,0,0,0
52,129,8502,14386,362,0,0,0,0,0,0,0,0,0,0,0
53,129,8460,14324,382,0,0,0,0,0,0,0,0,0,0,0
54,129,8432,14316,452,0,0,0,0,0,0,0,0,0,0,0
55,129,8570,14368,434,0,0,0,0,0,0,0,0,0,0,0
56,129,8442,14392,388,0,0,0,0,0,0,0,0,0,0,0
57,129,8452,14252,286,0,0,0,0,0,0,0,0,0,0,0
58,129,8454,14372,284,0,0,0,0,0,0,0,0,0,0,0
59,129,8496,14334,370,0,0,0,0,0,0,0,0,0,0,0
60,129,8474,14252,352,0,0,0,0,0,0,0,0,0,0,0
61,129,8438,14314,326,0,0,0,0,0,0,0,0,0,0,0
62,129,8460,14298,308,0,0,0,0,0,0,0,0,0,0,0
63,129,8512,14326,274,0,0,0,0,0,0,0,0,0,0,0
64,129,8536,14368,320,0,0,0,0,0,0,0,0,0,0,0
65,129,8512,14290,434,0,0,0,0,0,0,0,0,0,0,0
66,129,8498,14388,346,0,0,0,0,0,0,0,0,0,0,0
67,129,8486,14432,326,0,0,0,0,0,0,0,0,0,0,0
68,129,8474,14356,238,0,0,0,0,0,0,0,0,0,0,0
69,129,8498,14380,318,0,0,0,0,0,0,0,0,0,0,0
70,129,8456,14364,354,0,0,0,0,0,0,0,0,0,0,0
71,129,8450,14314,358,0,0,0,0,0,0,0,0,0,0,0
72,129,8498,14350,232,0,0,0,0,0,0,0,0,0,0,0
73,129,8508,14416,362,0,0,0,0,0,0,0,0,0,0,0
74,129,8470,14250,278,0,0,0,0,0,0,0,0,0,0,0
75,129,8506,14406,382,0,0,0,0,0,0,0,0,0,0,0
76,129,8452,14304,296,0,0,0,0,0,0,0,0,0,0,0
77,129,8552,14312,408,0,0,0,0,0,0,0,0,0,0,0
78,129,8502,14326,110,0,0,0,0,0,0,0,0,0,0,0
79,129,8470,14238,300,0,0,0,0,0,0,0,0,0,0,0
80,129,8444,14288,268,0,0,0,0,0,0,0,0,0,0,0
81,129,8420,14254,326,0,0,0,0,0,0,0,0,0,0,0
82,129,8532,14264,226,0,0,0,0,0,0,0,0,0,0,0
83,129,8498,14366,450,0,0,0,0,0,0,0,0,0,0,0
84,129,8446,14370,334,0,0,0,0,0,0,0,0,0,0,0
85,129,8422,14314,340,0,0,0,0,0,0,0,0,0,0,0
86,129,8390,14290,244,0,0,0,0,0,0,0,0,0,0,0
87,129,8470,14370,400,0,0,0,0,0,0,0,0,0,0,0
88,129,8476,14304,240,0,0,0,0,0,0,0,0,0,0,0
89,129,8422,14422,310,0,0,0,0,0,0,0,0,0,0,0
90,129,8520,14382,284,0,0,0,0,0,0,0,0,0,0,0
91,129,8448,14320,242,0,0,0,0,0,0,0,0,0,0,0
92,129,8500,14268,268,0,0,0,0,0,0,0,0,0,0,0
93,129,8552,14320,350,0,0,0,0,0,0,0,0,0,0,0
94,129,8494,14294,350,0,0,0,0,0,0,0,0,0,0,0
95,129,8502,14276,284,0,0,0,0,0,0,0,0,0,0,0
96,129,8398,14380,374,0,0,0,0,0,0,0,0,0,0,0
97,129,8482,14380,346,0,0,0,0,0,0,0,0,0,0,0
98,129,8500,14324,306,0,0,0,0,0,0,0,0,0,0,0
99,129,8510,14310,248,0,0,0,0,0,0,0,0,0,0,0
100,129,8410,14228,366,0,0,0,0,0,0,0,0,0,0,0
101,129,8474,14350,256,0,0,0,0,0,0,0,0,0,0,0
102,129,8528,14248,342,0,0,0,0,0,0,0,0,0,0,0
103,129,8474,14222,376,0,0,0,0,0,0,0,0,0,0,0
104,129,8448,14352,264,0,0,0,0,0,0,0,0,0,0,0
105,129,8514,14426,408,0,0,0,0,0,0,0,0,0,0,0
106,129,8452,14320,428,0,0,0,0,0,0,0,0,0,0,0
107,129,8472,14342,246,0,0,0,0,0,0,0,0,0,0,0
108,129,8602,14314,358,0,0,0,0,0,0,0,0,0,0,0
109,129,8542,14312,302,0,0,0,0,0,0,0,0,0,0,0
110,129,8494,14252,310,0,0,0,0,0,0,0,0,0,0,0
111,129,8544,14206,336,0,0,0,0,0,0,0,0,0,0,0
112,129,8362,14316,290,0,0,0,0,0,0,0,0,0,0,0
113,129,8506,14376,280,0,0,0,0,0,0,0,0,0,0,0
114,129,8480,14412,346,0,0,0,0,0,0,0,0,0,0,0
115,129,8446,14376,402,0,0,0,0,0,0,0,0,0,0,0
116,129,8440,14380,244,0,0,0,0,0,0,0,0,0,0,0
117,129,8484,14332,410,0,0,0,0,0,0,0,0,0,0,0
118,129,8548,14364,296,0,0,0,0,0,0,0,0,0,0,0
119,129,8514,14394,310,0,0,0,0,0,0,0,0,0,0,0
120,129,8468,14338,266,0,0,0,0,0,0,0,0,0,0,0
121,129,8488,14366,398,0,0,0,0,0,0,0,0,0,0,0
122,129,8460,14336,288,0,0,0,0,0,0,0,0,0,0,0
123,129,8424,14318,478,0,0,0,0,0,0,0,0,0,0,0
124,129,8442,14364,270,0,0,0,0,0,0,0,0,0,0,0
125,129,8452,14438,384,0,0,0,0,0,0,0,0,0,0,0
126,129,8438,14286,282,0,0,0,0,0,0,0,0,0,0,0
127,129,8386,14338,480,0,0,0,0,0,0,0,0,0,0,0
128,129,8548,14344,324,0,0,0,0,0,0,0,0,0,0,0
129,129,8476,14308,210,0,0,0,0,0,0,0,0,0,0,0
130,129,8512,14362,274,0,0,0,0,0,0,0,0,0,0,0
131,129,8476,14350,380,0,0,0,0,0,0,0,0,0,0,0
132,129,8384,14276,322,0,0,0,0,0,0,0,0,0,0,0
133,129,8458,14298,346,0,0,0,0,0,0,0,0,0,0,0
134,129,8506,14208,310,0,0,0,0,0,0,0,0,0,0,0
135,129,8450,14398,348,0,0,0,0,0,0,0,0,0,0,0
136,129,8480,14366,200,0,0,0,0,0,0,0,0,0,0,0
137,129,8410,14274,200,0,0,0,0,0,0,0,0,0,0,0
138,129,8480,14308,320,0,0,0,0,0,0,0,0,0,0,0
139,129,8496,14376,262,0,0,0,0,0,0,0,0,0,0,0
140,129,8452,14340,422,0,0,0,0,0,0,0,0,0,0,0
141,129,8462,14350,358,0,0,0,0,0,0,0,0,0,0,0
142,129,8444,14384,374,0,0,0,0,0,0,0,0,0,0,0
143,129,8502,14358,318,0,0,0,0,0,0,0,0,0,0,0
144,129,8410,14234,384,0,0,0,0,0,0,0,0,0,0,0
145,129,8502,14368,432,0,0,0,0,0,0,0,0,0,0,0
146,129,8488,14326,200,0,0,0,0,0,0,0,0,0,0,0
147,129,8420,14340,456,0,0,0,0,0,0,0,0,0,0,0
148,129,8502,14466,250,0,0,0,0,0,0,0,0,0,0,0
149,129,8450,14366,186,0,0,0,0,0,0,0,0,0,0,0
150,129,8426,14374,322,0,0,0,0,0,0,0,0,0,0,0
151,129,8508,14254,406,0,0,0,0,0,0,0,0,0,0,0
152,129,8426,14280,304,0,0,0,0,0,0,0,0,0,0,0
153,129,8454,14362,338,0,0,0,0,0,0,0,0,0,0,0
154,129,8500,14390,324,0,0,0,0,0,0,0,0,0,0,0
155,129,8452,14296,240,0,0,0,0,0,0,0,0,0,0,0
156,129,8454,14410,262,0,0,0,0,0,0,0,0,0,0,0
157,129,8426,14298,346,0,0,0,0,0,0,0,0,0,0,0
158,129,8432,14376,464,0,0,0,0,0,0,0,0,0,0,0
159,129,8528,14272,256,0,0,0,0,0,0,0,0,0,0,0
160,129,8430,14352,330,0,0,0,0,0,0,0,0,0,0,0
161,129,8436,14318,424,0,0,0,0,0,0,0,0,0,0,0
162,129,8486,14360,412,0,0,0,0,0,0,0,0,0,0,0
163,129,8506,14362,356,0,0,0,0,0,0,0,0,0,0,0
164,129,8414,14346,294,0,0,0,0,0,0,0,0,0,0,0
165,129,8434,14382,372,0,0,0,0,0,0,0,0,0,0,0
166,129,8466,14378,364,0,0,0,0,0,0,0,0,0,0,0
167,129,8542,14284,370,0,0,0,0,0,0,0,0,0,0,0
168,129,8494,14330,284,0,0,0,0,0,0,0,0,0,0,0
169,129,8468,14294,232,0,0,0,0,0,0,0,0,0,0,0
170,129,8446,14370,426,0,0,0,0,0,0,0,0,0,0,0
171,129,8424,14290,400,0,0,0,0,0,0,0,0,0,0,0
172,129,8440,14338,260,0,0,0,0,0,0,0,0,0,0,0
173,129,8448,14316,344,0,0,0,0,0,0,0,0,0,0,0
174,129,8518,14294,216,0,0,0,0,0,0,0,0,0,0,0
175,129,8452,14368,320,0,0,0,0,0,0,0,0,0,0,0
176,129,8426,14444,332,0,0,0,0,0,0,0,0,0,0,0
177,129,8530,14280,420,0,0,0,0,0,0,0,0,0,0,0
178,129,8502,14348,412,0,0,0,0,0,0,0,0,0,0,0
179,129,8586,14394,278,0,0,0,0,0,0,0,0,0,0,0
180,129,8476,14352,302,0,0,0,0,0,0,0,0,0,0,0
181,129,8408,14274,300,0,0,0,0,0,0,0,0,0,0,0
182,129,8500,14312,402,0,0,0,0,0,0,0,0,0,0,0
183,129,8440,14324,230,0,0,0,0,0,0,0,0,0,0,0
184,129,8518,14314,312,0,0,0,0,0,0,0,0,0,0,0
185,129,8478,14396,362,0,0,0,0,0,0,0,0,0,0,0
186,129,8480,14356,354,0,0,0,0,0,0,0,0,0,0,0
187,129,8442,14274,258,0,0,0,0,0,0,0,0,0,0,0
188,129,8466,14296,280,0,0,0,0,0,0,0,0,0,0,0
189,129,8406,14284,384,0,0,0,0,0,0,0,0,0,0,0
190,129,8516,14362,224,0,0,0,0,0,0,0,0,0,0,0
191,129,8506,14368,340,0,0,0,0,0,0,0,0,0,0,0
192,129,8530,14378,302,0,0,0,0,0,0,0,0,0,0,0
193,129,8480,14236,366,0,0,0,0,0,0,0,0,0,0,0
194,129,8466,14344,354,0,0,0,0,0,0,0,0,0,0,0
195,129,8480,14376,466,0,0,0,0,0,0,0,0,0,0,0
196,129,8410,14206,458,0,0,0,0,0,0,0,0,0,0,0
197,129,8490,14402,366,0,0,0,0,0,0,0,0,0,0,0
198,129,8454,14366,342,0,0,0,0,0,0,0,0,0,0,0
199,129,8488,14350,370,0,0,0,0,0,0,0,0,0,0,0
200,129,8448,14384,266,0,0,0,0,0,0,0,0,0,0,0
201,129,8448,14368,302,0,0,0,0,0,0,0,0,0,0,0
202,129,8494,14360,318,0,0,0,0,0,0,0,0,0,0,0
203,129,8536,14350,356,0,0,0,0,0,0,0,0,0,0,0
204,129,8426,14316,394,0,0,0,0,0,0,0,0,0,0,0
205,129,8514,14292,434,0,0,0,0,0,0,0,0,0,0,0
206,129,8468,14384,192,0,0,0,0,0,0,0,0,0,0,0
207,129,8522,14282,306,0,0,0,0,0,0,0,0,0,0,0
208,129,8450,14370,300,0,0,0,0,0,0,0,0,0,0,0
209,129,8508,14324,350,0,0,0,0,0,0,0,0,0,0,0
210,129,8450,14266,326,0,0,0,0,0,0,0,0,0,0,0
211,129,8506,14290,158,0,0,0,0,0,0,0,0,0,0,0
212,129,8468,14306,346,0,0,0,0,0,0,0,0,0,0,0
213,129,8394,14326,278,0,0,0,0,0,0,0,0,0,0,0
214,129,8464,14460,268,0,0,0,0,0,0,0,0,0,0,0
215,129,8546,14308,434,0,0,0,0,0,0,0,0,0,0,0
216,129,8422,14330,372,0,0,0,0,0,0,0,0,0,0,0
217,129,8586,14346,274,0,0,0,0,0,0,0,0,0,0,0
218,129,8436,14348,344,0,0,0,0,0,0,0,0,0,0,0
219,129,8478,14344,352,0,0,0,0,0,0,0,0,0,0,0
220,129,8496,14350,364,0,0,0,0,0,0,0,0,0,0,0
221,129,8450,14328,352,0,0,0,0,0,0,0,0,0,0,0
222,129,8436,14330,246,0,0,0,0,0,0,0,0,0,0,0
223,129,8448,14348,394,0,0,0,0,0,0,0,0,0,0,0
224,129,8440,14312,500,0,0,0,0,0,0,0,0,0,0,0
225,129,8482,14334,342,0,0,0,0,0,0,0,0,0,0,0
226,129,8410,14364,376,0,0,0,0,0,0,0,0,0,0,0
227,129,8456,14246,298,0,0,0,0,0,0,0,0,0,0,0
228,129,8438,14436,396,0,0,0,0,0,0,0,0,0,0,0
229,129,8448,14338,270,0,0,0,0,0,0,0,0,0,0,0
230,129,8454,14308,242,0,0,0,0,0,0,0,0,0,0,0
231,129,8474,14332,344,0,0,0,0,0,0,0,0,0,0,0
232,129,8476,14378,194,0,0,0,0,0,0,0,0,0,0,0
233,129,8374,14262,184,0,0,0,0,0,0,0,0,0,0,0
234,129,8432,14496,254,0,0,0,0,0,0,0,0,0,0,0
235,129,8444,14354,446,0,0,0,0,0,0,0,0,0,0,0
236,129,8416,14302,350,0,0,0,0,0,0,0,0,0,0,0
237,129,8570,14352,328,0,0,0,0,0,0,0,0,0,0,0
238,129,8448,14272,232,0,0,0,0,0,0,0,0,0,0,0
239,129,8470,14284,228,0,0,0,0,0,0,0,0,0,0,0
240,129,8414,14358,340,0,0,0,0,0,0,0,0,0,0,0
241,129,8484,14364,362,0,0,0,0,0,0,0,0,0,0,0
242,129,8472,14304,270,0,0,0,0,0,0,0,0,0,0,0
243,129,8494,14346,230,0,0,0,0,0,0,0,0,0,0,0
244,129,8478,14376,400,0,0,0,0,0,0,0,0,0,0,0
245,129,8428,14382,298,0,0,0,0,0,0,0,0,0,0,0
246,129,8476,14366,370,0,0,0,0,0,0,0,0,0,0,0
247,129,8410,14360,386,0,0,0,0,0,0,0,0,0,0,0
248,129,8452,14280,256,0,0,0,0,0,0,0,0,0,0,0
249,129,8482,14286,248,0,0,0,0,0,0,0,0,0,0,0
250,129,8420,14396,472,0,0,0,0,0,0,0,0,0,0,0
251,129,8446,14370,344,0,0,0,0,0,0,0,0,0,0,0
252,129,8464,14414,326,0,0,0,0,0,0,0,0,0,0,0
253,129,8462,14310,316,0,0,0,0,0,0,0,0,0,0,0
254,129,8510,14322,302,0,0,0,0,0,0,0,0,0,0,0
255,129,8506,14334,416,0,0,0,0,0,0,0,0,0,0,0
256,129,8440,14314,426,0,0,0,0,0,0,0,0,0,0,0
257,129,8434,14286,388,0,0,0,0,0,0,0,0,0,0,0
258,129,8626,14350,374,0,0,0,0,0,0,0,0,0,0,0
259,129,8396,14302,230,0,0,0,0,0,0,0,0,0,0,0
260,129,8524,14374,264,0,0,0,0,0,0,0,0,0,0,0
261,129,8470,14348,482,0,0,0,0,0,0,0,0,0,0,0
262,129,8454,14326,418,0,0,0,0,0,0,0,0,0,0,0
263,129,8536,14242,382,0,0,0,0,0,0,0,0,0,0,0
264,129,8486,14306,306,0,0,0,0,0,0,0,0,0,0,0
265,129,8500,14332,244,0,0,0,0,0,0,0,0,0,0,0
266,129,8522,14366,422,0,0,0,0,0,0,0,0,0,0,0
267,129,8502,14394,374,0,0,0,0,0,0,0,0,0,0,0
268,129,8532,14302,394,0,0,0,0,0,0,0,0,0,0,0
269,129,8490,14380,386,0,0,0,0,0,0,0,0,0,0,0
270,129,8514,14354,374,0,0,0,0,0,0,0,0,0,0,0
271,129,8462,14334,378,0,0,0,0,0,0,0,0,0,0,0
272,129,8552,14412,450,0,0,0,0,0,0,0,0,0,0,0
273,129,8436,14326,330,0,0,0,0,0,0,0,0,0,0,0
274,129,8466,14354,432,0,0,0,0,0,0,0,0,0,0,0
275,129,8448,14380,286,0,0,0,0,0,0,0,0,0,0,0
276,129,8538,14246,384,0,0,0,0,0,0,0,0,0,0,0
277,129,8448,14328,260,0,0,0,0,0,0,0,0,0,0,0
278,129,8452,14404,346,0,0,0,0,0,0,0,0,0,0,0
279,129,8422,14258,330,0,0,0,0,0,0,0,0,0,0,0
280,129,8492,14326,248,0,0,0,0,0,0,0,0,0,0,0
281,129,8448,14386,446,0,0,0,0,0,0,0,0,0,0,0
282,129,8444,14294,296,0,0,0,0,0,0,0,0,0,0,0
283,129,8498,14362,318,0,0,0,0,0,0,0,0,0,0,0
284,129,8402,14386,282,0,0,0,0,0,0,0,0,0,0,0
285,129,8516,14318,294,0,0,0,0,0,0,0,0,0,0,0
286,129,8464,14370,256,0,0,0,0,0,0,0,0,0,0,0
287,129,8524,14294,342,0,0,0,0,0,0,0,0,0,0,0
288,129,8428,14320,410,0,0,0,0,0,0,0,0,0,0,0
289,129,8398,14356,416,0,0,0,0,0,0,0,0,0,0,0
290,129,8448,14342,312,0,0,0,0,0,0,0,0,0,0,0
291,129,8398,14308,348,0,0,0,0,0,0,0,0,0,0,0
292,129,8458,14330,254,0,0,0,0,0,0,0,0,0,0,0
293,129,8542,14348,384,0,0,0,0,0,0,0,0,0,0,0
294,129,8498,14266,312,0,0,0,0,0,0,0,0,0,0,0
295,129,8468,14366,388,0,0,0,0,0,0,0,0,0,0,0
296,129,8504,14334,428,0,0,0,0,0,0,0,0,0,0,0
297,129,8432,14340,326,0,0,0,0,0,0,0,0,0,0,0
298,129,8448,14382,234,0,0,0,0,0,0,0,0,0,0,0
299,129,8464,14346,322,0,0,0,0,0,0,0,0,0,0,0
300,129,8470,14272,308,0,0,0,0,0,0,0,0,0,0,0
301,129,8484,14268,394,0,0,0,0,0,0,0,0,0,0,0
302,129,8480,14412,344,0,0,0,0,0,0,0,0,0,0,0
303,129,8392,14384,382,0,0,0,0,0,0,0,0,0,0,0
304,129,8482,14390,332,0,0,0,0,0,0,0,0,0,0,0
305,129,8458,14300,274,0,0,0,0,0,0,0,0,0,0,0
306,129,8438,14310,306,0,0,0,0,0,0,0,0,0,0,0
307,129,8454,14326,248,0,0,0,0,0,0,0,0,0,0,0
308,129,8454,14374,218,0,0,0,0,0,0,0,0,0,0,0
309,129,8602,14260,294,0,0,0,0,0,0,0,0,0,0,0
310,129,8484,14468,286,0,0,0,0,0,0,0,0,0,0,0
311,129,8428,14278,448,0,0,0,0,0,0,0,0,0,0,0
312,129,8410,14400,358,0,0,0,0,0,0,0,0,0,0,0
313,129,8458,14344,180,0,0,0,0,0,0,0,0,0,0,0
314,129,8474,14230,332,0,0,0,0,0,0,0,0,0,0,0
315,129,8498,14370,462,0,0,0,0,0,0,0,0,0,0,0
316,129,8512,14354,390,0,0,0,0,0,0,0,0,0,0,0
317,129,8466,14320,536,0,0,0,0,0,0,0,0,0,0,0
318,129,8444,14298,406,0,0,0,0,0,0,0,0,0,0,0
319,129,8418,14384,502,0,0,0,0,0,0,0,0,0,0,0
320,129,8374,14282,240,0,0,0,0,0,0,0,0,0,0,0
321,129,8408,14378,334,0,0,0,0,0,0,0,0,0,0,0
322,129,8440,14388,312,0,0,0,0,0,0,0,0,0,0,0
323,129,8494,14328,354,0,0,0,0,0,0,0,0,0,0,0
324,129,8456,14380,360,0,0,0,0,0,0,0,0,0,0,0
325,129,8524,14342,376,0,0,0,0,0,0,0,0,0,0,0
326,129,8490,14370,344,0,0,0,0,0,0,0,0,0,0,0
327,129,8510,14392,212,0,0,0,0,0,0,0,0,0,0,0
328,129,8496,14342,252,0,0,0,0,0,0,0,0,0,0,0
329,129,8462,14416,314,0,0,0,0,0,0,0,0,0,0,0
330,129,8498,14390,356,0,0,0,0,0,0,0,0,0,0,0
331,129,8386,14232,386,0,0,0,0,0,0,0,0,0,0,0
332,129,8430,14264,298,0,0,0,0,0,0,0,0,0,0,0
333,129,8574,14388,192,0,0,0,0,0,0,0,0,0,0,0
334,129,8488,14336,258,0,0,0,0,0,0,0,0,0,0,0
335,129,8496,14402,236,0,0,0,0,0,0,0,0,0,0,0
336,129,8438,14316,310,0,0,0,0,0,0,0,0,0,0,0
337,129,8468,14340,268,0,0,0,0,0,0,0,0,0,0,0
338,129,8468,14388,368,0,0,0,0,0,0,0,0,0,0,0
339,129,8432,14398,304,0,0,0,0,0,0,0,0,0,0,0
340,129,8520,14356,270,0,0,0,0,0,0,0,0,0,0,0
341,129,8494,14292,382,0,0,0,0,0,0,0,0,0,0,0
342,129,8448,14346,418,0,0,0,0,0,0,0,0,0,0,0
343,129,8424,14238,318,0,0,0,0,0,0,0,0,0,0,0
344,129,8488,14392,246,0,0,0,0,0,0,0,0,0,0,0
345,129,8414,14352,332,0,0,0,0,0,0,0,0,0,0,0
346,129,8424,14272,340,0,0,0,0,0,0,0,0,0,0,0
347,129,8478,14286,320,0,0,0,0,0,0,0,0,0,0,0
348,129,8444,14306,230,0,0,0,0,0,0,0,0,0,0,0
349,129,8378,14370,440,0,0,0,0,0,0,0,0,0,0,0
350,129,8436,14292,322,0,0,0,0,0,0,0,0,0,0,0
351,129,8474,14282,502,0,0,0,0,0,0,0,0,0,0,0
352,129,8482,14326,312,0,0,0,0,0,0,0,0,0,0,0
353,129,8462,14390,310,0,0,0,0,0,0,0,0,0,0,0
354,129,8420,14388,244,0,0,0,0,0,0,0,0,0,0,0
355,129,8464,14256,352,0,0,0,0,0,0,0,0,0,0,0
356,129,8418,14342,290,0,0,0,0,0,0,0,0,0,0,0
357,129,8458,14322,324,0,0,0,0,0,0,0,0,0,0,0
358,129,8458,14342,360,0,0,0,0,0,0,0,0,0,0,0
359,129,8382,14344,436,0,0,0,0,0,0,0,0,0,0,0
360,129,8492,14300,274,0,0,0,0,0,0,0,0,0,0,0
361,129,8508,14252,422,0,0,0,0,0,0,0,0,0,0,0
362,129,8476,14376,204,0,0,0,0,0,0,0,0,0,0,0
363,129,8434,14400,312,0,0,0,0,0,0,0,0,0,0,0
364,129,8532,14352,194,0,0,0,0,0,0,0,0,0,0,0
365,129,8498,14338,404,0,0,0,0,0,0,0,0,0,0,0
366,129,8462,14378,286,0,0,0,0,0,0,0,0,0,0,0
367,129,8440,14266,414,0,0,0,0,0,0,0,0,0,0,0
368,129,8454,14390,258,0,0,0,0,0,0,0,0,0,0,0
369,129,8392,14412,304,0,0,0,0,0,0,0,0,0,0,0
370,129,8474,14354,446,0,0,0,0,0,0,0,0,0,0,0
371,129,8492,14390,338,0,0,0,0,0,0,0,0,0,0,0
372,129,8432,14364,316,0,0,0,0,0,0,0,0,0,0,0
373,129,8492,14388,312,0,0,0,0,0,0,0,0,0,0,0
374,129,8454,14350,268,0,0,0,0,0,0,0,0,0,0,0
375,129,8444,14230,270,0,0,0,0,0,0,0,0,0,0,0
376,129,8456,14318,384,0,0,0,0,0,0,0,0,0,0,0
377,129,8474,14294,340,0,0,0,0,0,0,0,0,0,0,0
378,129,8440,14336,298,0,0,0,0,0,0,0,0,0,0,0
379,129,8462,14426,368,0,0,0,0,0,0,0,0,0,0,0
380,129,8482,14364,384,0,0,0,0,0,0,0,0,0,0,0
381,129,8466,14346,374,0,0,0,0,0,0,0,0,0,0,0
382,129,8524,14410,426,0,0,0,0,0,0,0,0,0,0,0
383,129,8496,14374,302,0,0,0,0,0,0,0,0,0,0,0
384,129,8506,14322,208,0,0,0,0,0,0,0,0,0,0,0
385,129,8464,14368,300,0,0,0,0,0,0,0,0,0,0,0
386,129,8518,14340,232,0,0,0,0,0,0,0,0,0,0,0
